time,orientation_x,orientation_y,orientation_z,orientation_w,angular_velocity_x,angular_velocity_y,angular_velocity_z,linear_acceleration_x,linear_acceleration_y,linear_acceleration_z
2025-01-03 10:48:27.966635,-0.022948760609401278,0.0006713733157005693,-0.7918543088999259,0.6102783439718175,-0.0011111111111111111,0.0,0.0,0.03,-0.08,0.05
2025-01-03 10:48:27.975628,-0.022948760609401278,0.0006713733157005693,-0.7918543088999259,0.6102783439718175,-0.0033333333333333335,0.0044444444444444444,-0.0033333333333333335,0.0,-0.13,0.0
2025-01-03 10:48:27.992168,-0.022948760609401278,0.0006713733157005693,-0.7918543088999259,0.6102783439718175,0.0,0.0011111111111111111,-0.0044444444444444444,-0.1,-0.08,0.07
2025-01-03 10:48:28.000496,-0.022948760609401278,0.0006713733157005693,-0.7918543088999259,0.6102783439718175,0.0,0.0,-0.0011111111111111111,-0.04,-0.11,0.0
2025-01-03 10:48:28.012751,-0.022948760609401278,0.0006713733157005693,-0.7918543088999259,0.6102783439718175,0.0011111111111111111,0.0,0.0011111111111111111,-0.09,-0.03,0.17
2025-01-03 10:48:28.026694,-0.022948760609401278,0.0006713733157005693,-0.7918543088999259,0.6102783439718175,0.0,-0.0022222222222222222,0.0022222222222222222,-0.07,-0.02,0.07
2025-01-03 10:48:28.039619,-0.022948760609401278,0.0006713733157005693,-0.7918543088999259,0.6102783439718175,0.0011111111111111111,-0.0044444444444444444,0.0011111111111111111,0.02,-0.03,0.07
2025-01-03 10:48:28.051583,-0.022948760609401278,0.0006713733157005693,-0.7918543088999259,0.6102783439718175,-0.0011111111111111111,-0.0011111111111111111,0.0011111111111111111,-0.02,0.07,0.12
2025-01-03 10:48:28.064442,-0.022948760609401278,0.0006713733157005693,-0.7918543088999259,0.6102783439718175,0.0,-0.0077777777777777776,0.0044444444444444444,0.1,-0.01,1.35
2025-01-03 10:48:28.078259,-0.022948760609401278,0.0006713733157005693,-0.7918543088999259,0.6102783439718175,0.0011111111111111111,0.0,0.0,0.1,0.03,0.13
2025-01-03 10:48:28.090764,-0.022948760609401278,0.0006713733157005693,-0.7918543088999259,0.6102783439718175,-0.0022222222222222222,0.0011111111111111111,0.0011111111111111111,0.1,-0.09,0.06
2025-01-03 10:48:28.101517,-0.022948760609401278,0.0006713733157005693,-0.7918543088999259,0.6102783439718175,-0.0011111111111111111,0.0022222222222222222,0.0,0.0,-0.03,0.03
2025-01-03 10:48:28.114485,-0.022948760609401278,0.0006713733157005693,-0.7918543088999259,0.6102783439718175,-0.0022222222222222222,0.0077777777777777776,-0.0044444444444444444,0.0,-0.16,0.05
2025-01-03 10:48:28.128842,-0.022948760609401278,0.0006713733157005693,-0.7918543088999259,0.6102783439718175,0.0,0.0022222222222222222,-0.0022222222222222222,-0.01,-0.12,0.07
2025-01-03 10:48:28.141402,-0.022948760609401278,0.0006713733157005693,-0.7918543088999259,0.6102783439718175,0.0,0.0022222222222222222,-0.0022222222222222222,-0.08,-0.09,0.08
2025-01-03 10:48:28.154819,-0.022948760609401278,0.0006713733157005693,-0.7918543088999259,0.6102783439718175,0.0033333333333333335,-0.0011111111111111111,0.0,-0.07,-0.05,0.06
2025-01-03 10:48:28.166662,-0.022948760609401278,0.0006713733157005693,-0.7918543088999259,0.6102783439718175,0.0033333333333333335,-0.0022222222222222222,0.0044444444444444444,-0.08,0.01,0.12
2025-01-03 10:48:28.177037,-0.022948760609401278,0.0006713733157005693,-0.7918543088999259,0.6102783439718175,0.0022222222222222222,-0.0044444444444444444,0.0022222222222222222,0.03,-0.15,0.0
2025-01-03 10:48:28.190281,-0.022948760609401278,0.0006713733157005693,-0.7918543088999259,0.6102783439718175,0.0033333333333333335,-0.0022222222222222222,0.0033333333333333335,0.07,-0.05,0.02
2025-01-03 10:48:28.201813,-0.022948760609401278,0.0006713733157005693,-0.7918543088999259,0.6102783439718175,0.0,0.0,0.0033333333333333335,0.07,-0.03,-0.02
2025-01-03 10:48:28.214912,-0.022948760609401278,0.0006713733157005693,-0.7918543088999259,0.6102783439718175,0.0,-0.0022222222222222222,0.0022222222222222222,0.05,-0.01,0.02
2025-01-03 10:48:28.229022,-0.022948760609401278,0.0006713733157005693,-0.7918543088999259,0.6102783439718175,-0.0022222222222222222,0.0022222222222222222,0.0,0.07,-0.05,-0.01
2025-01-03 10:48:28.241239,-0.022948760609401278,0.0006713733157005693,-0.7918543088999259,0.6102783439718175,0.0,0.0022222222222222222,-0.0011111111111111111,0.0,-0.09,0.02
2025-01-03 10:48:28.252083,-0.022948760609401278,0.0006713733157005693,-0.7918543088999259,0.6102783439718175,0.0011111111111111111,0.0033333333333333335,-0.0011111111111111111,-0.03,-0.11,0.01
2025-01-03 10:48:28.265627,-0.022948760609401278,0.0006713733157005693,-0.7918543088999259,0.6102783439718175,0.0,0.0022222222222222222,-0.0022222222222222222,-0.05,-0.14,0.05
2025-01-03 10:48:28.278468,-0.022948760609401278,0.0006713733157005693,-0.7918543088999259,0.6102783439718175,0.0,0.0011111111111111111,0.0,-0.05,-0.05,0.11
2025-01-03 10:48:28.291192,-0.022948760609401278,0.0006713733157005693,-0.7918543088999259,0.6102783439718175,0.0022222222222222222,0.0,-0.0033333333333333335,-0.04,-0.01,0.14
2025-01-03 10:48:28.302595,-0.022948760609401278,0.0006713733157005693,-0.7918543088999259,0.6102783439718175,0.0,-0.0044444444444444444,0.14333333333333334,-0.03,0.03,0.1
2025-01-03 10:48:28.314979,-0.022948760609401278,0.0006713733157005693,-0.7918543088999259,0.6102783439718175,0.005555555555555556,-0.0033333333333333335,0.0022222222222222222,0.05,0.03,0.09
2025-01-03 10:48:28.329177,-0.022948760609401278,0.0006713733157005693,-0.7918543088999259,0.6102783439718175,-0.0033333333333333335,-0.0077777777777777776,0.0,0.13,-0.02,0.09
2025-01-03 10:48:28.341720,-0.022948760609401278,0.0006713733157005693,-0.7918543088999259,0.6102783439718175,-0.0011111111111111111,-0.0011111111111111111,0.0,0.14,-0.01,0.06
2025-01-03 10:48:28.353850,-0.022948760609401278,0.0006713733157005693,-0.7918543088999259,0.6102783439718175,-0.0022222222222222222,0.0022222222222222222,0.0022222222222222222,0.08,0.01,0.09
2025-01-03 10:48:28.366296,-0.022948760609401278,0.0006713733157005693,-0.7918543088999259,0.6102783439718175,-0.0033333333333333335,0.0077777777777777776,-0.0022222222222222222,0.08,-0.07,0.05
2025-01-03 10:48:28.379427,-0.022948760609401278,0.0006713733157005693,-0.7918543088999259,0.6102783439718175,-0.0033333333333333335,0.0,-0.0044444444444444444,0.01,-0.15,0.02
2025-01-03 10:48:28.391789,-0.022948760609401278,0.0006713733157005693,-0.7918543088999259,0.6102783439718175,0.0,0.0044444444444444444,-0.0022222222222222222,-0.1,-0.11,0.01
2025-01-03 10:48:28.402913,-0.022948760609401278,0.0006713733157005693,-0.7918543088999259,0.6102783439718175,0.0,0.0022222222222222222,0.0,-0.05,-0.12,0.05
2025-01-03 10:48:28.415911,-0.022948760609401278,0.0006713733157005693,-0.7918543088999259,0.6102783439718175,0.0022222222222222222,0.0,0.0,-0.1,-0.05,0.2
2025-01-03 10:48:28.429199,-0.022948760609401278,0.0006713733157005693,-0.7918543088999259,0.6102783439718175,0.0,-0.0011111111111111111,0.0022222222222222222,-0.05,-0.02,0.05
2025-01-03 10:48:28.442204,-0.022948760609401278,0.0006713733157005693,-0.7918543088999259,0.6102783439718175,0.0,-0.0011111111111111111,0.0022222222222222222,0.0,-0.06,0.01
2025-01-03 10:48:28.452986,-0.022948760609401278,0.0006713733157005693,-0.7918543088999259,0.6102783439718175,-0.0011111111111111111,-0.0044444444444444444,0.0022222222222222222,0.0,0.07,0.11
2025-01-03 10:48:28.465347,-0.022948760609401278,0.0006713733157005693,-0.7918543088999259,0.6102783439718175,0.0,0.0,0.0022222222222222222,0.12,0.0,0.06
2025-01-03 10:48:28.478955,-0.022948760609401278,0.0006713733157005693,-0.7918543088999259,0.6102783439718175,0.0022222222222222222,-0.0011111111111111111,0.0011111111111111111,0.11,0.01,0.14
2025-01-03 10:48:28.491705,-0.022948760609401278,0.0006713733157005693,-0.7918543088999259,0.6102783439718175,-0.0033333333333333335,0.0011111111111111111,0.0,0.13,-0.07,0.09
2025-01-03 10:48:28.503502,-0.022948760609401278,0.0006713733157005693,-0.7918543088999259,0.6102783439718175,-0.0022222222222222222,0.0022222222222222222,-0.0011111111111111111,-0.02,-0.1,0.0
2025-01-03 10:48:28.516133,-0.022948760609401278,0.0006713733157005693,-0.7918543088999259,0.6102783439718175,0.0,0.0044444444444444444,-0.0022222222222222222,-0.01,-0.13,0.06
2025-01-03 10:48:28.529742,-0.022948760609401278,0.0006713733157005693,-0.7918543088999259,0.6102783439718175,-0.0022222222222222222,0.0011111111111111111,-0.0044444444444444444,-0.02,-0.14,0.09
2025-01-03 10:48:28.542630,-0.022948760609401278,0.0006713733157005693,-0.7918543088999259,0.6102783439718175,0.0011111111111111111,0.0,-0.0022222222222222222,-0.12,-0.09,0.11
2025-01-03 10:48:28.554532,-0.022948760609401278,0.0006713733157005693,-0.7918543088999259,0.6102783439718175,0.0011111111111111111,0.0,0.0,-0.04,0.01,0.07
2025-01-03 10:48:28.566235,-0.022948760609401278,0.0006713733157005693,-0.7918543088999259,0.6102783439718175,0.0022222222222222222,-0.0022222222222222222,0.0022222222222222222,-0.03,-0.08,0.0
2025-01-03 10:48:28.579717,-0.022948760609401278,0.0006713733157005693,-0.7918543088999259,0.6102783439718175,0.006666666666666667,-0.0011111111111111111,0.0044444444444444444,0.05,-0.09,0.0
2025-01-03 10:48:28.592342,-0.022948760609401278,0.0006713733157005693,-0.7918543088999259,0.6102783439718175,0.0,-0.005555555555555556,0.0,0.08,-0.07,0.0
2025-01-03 10:48:28.604225,-0.022948760609401278,0.0006713733157005693,-0.7918543088999259,0.6102783439718175,0.0022222222222222222,-0.0033333333333333335,0.0022222222222222222,0.17,-0.02,0.12
2025-01-03 10:48:28.617771,-0.022948760609401278,0.0006713733157005693,-0.7918543088999259,0.6102783439718175,-0.0033333333333333335,0.0,0.0,0.11,0.0,-0.04
2025-01-03 10:48:28.632981,-0.022948760609401278,0.0006713733157005693,-0.7918543088999259,0.6102783439718175,-0.0011111111111111111,0.005555555555555556,0.0,0.06,-0.1,0.1
2025-01-03 10:48:28.642438,-0.022948760609401278,0.0006713733157005693,-0.7918543088999259,0.6102783439718175,-0.0022222222222222222,0.0,0.0,-0.05,-0.07,0.12
2025-01-03 10:48:28.654610,-0.022948760609401278,0.0006713733157005693,-0.7918543088999259,0.6102783439718175,-0.0011111111111111111,0.0033333333333333335,-0.0033333333333333335,-0.04,-0.16,-0.02
2025-01-03 10:48:28.667523,-0.022948760609401278,0.0006713733157005693,-0.7918543088999259,0.6102783439718175,0.0,0.0011111111111111111,-0.0011111111111111111,-0.1,-0.17,0.08
2025-01-03 10:48:28.681076,-0.022948760609401278,0.0006713733157005693,-0.7918543088999259,0.6102783439718175,0.0,0.0,-0.0011111111111111111,-0.05,-0.06,0.0
2025-01-03 10:48:28.695052,-0.022948760609401278,0.0006713733157005693,-0.7918543088999259,0.6102783439718175,0.0011111111111111111,-0.0033333333333333335,0.0,-0.05,-0.02,0.12
2025-01-03 10:48:28.709042,-0.022948760609401278,0.0006713733157005693,-0.7918543088999259,0.6102783439718175,0.0033333333333333335,-0.0033333333333333335,0.0033333333333333335,-0.07,-0.02,0.04
2025-01-03 10:48:28.720139,-0.022948760609401278,0.0006713733157005693,-0.7918543088999259,0.6102783439718175,0.0022222222222222222,-0.0022222222222222222,0.0,0.06,0.06,0.12
2025-01-03 10:48:28.733419,-0.022948760609401278,0.0006713733157005693,-0.7918543088999259,0.6102783439718175,-0.0011111111111111111,-0.0033333333333333335,0.0,0.07,0.03,0.09
2025-01-03 10:48:28.745724,-0.022948760609401278,0.0006713733157005693,-0.7918543088999259,0.6102783439718175,-0.0033333333333333335,-0.0033333333333333335,0.0,0.13,-0.05,-0.03
2025-01-03 10:48:28.756386,-0.022948760609401278,0.0006713733157005693,-0.7918543088999259,0.6102783439718175,0.0,0.0033333333333333335,0.0,0.1,-0.08,0.19
2025-01-03 10:48:28.769828,-0.022948760609401278,0.0006713733157005693,-0.7918543088999259,0.6102783439718175,-0.0011111111111111111,0.0,0.0,0.03,-0.06,0.01
2025-01-03 10:48:28.783215,-0.022948760609401278,0.0006713733157005693,-0.7918543088999259,0.6102783439718175,-0.0011111111111111111,0.0033333333333333335,-0.0033333333333333335,-0.07,-0.07,0.01
2025-01-03 10:48:28.796272,-0.022948760609401278,0.0006713733157005693,-0.7918543088999259,0.6102783439718175,0.0011111111111111111,0.0,-0.0044444444444444444,-0.13,-0.16,0.05
2025-01-03 10:48:28.806985,-0.022948760609401278,0.0006713733157005693,-0.7918543088999259,0.6102783439718175,0.0011111111111111111,0.0,0.0,-0.04,-0.1,0.06
2025-01-03 10:48:28.819906,-0.022948760609401278,0.0006713733157005693,-0.7918543088999259,0.6102783439718175,0.0011111111111111111,-0.0011111111111111111,0.0,-0.09,-0.05,0.12
2025-01-03 10:48:28.834268,-0.022948760609401278,0.0006713733157005693,-0.7918543088999259,0.6102783439718175,0.0011111111111111111,-0.0022222222222222222,0.0,0.01,-0.03,0.06
2025-01-03 10:48:28.847006,-0.022948760609401278,0.0006713733157005693,-0.7918543088999259,0.6102783439718175,0.0033333333333333335,-0.0033333333333333335,0.0033333333333333335,0.06,-0.02,0.05
2025-01-03 10:48:28.858122,-0.022948760609401278,0.0006713733157005693,-0.7918543088999259,0.6102783439718175,0.0,-0.0033333333333333335,0.0033333333333333335,0.14,-0.08,0.0
2025-01-03 10:48:28.871752,-0.022948760609401278,0.0006713733157005693,-0.7918543088999259,0.6102783439718175,0.0,-0.0011111111111111111,0.0044444444444444444,0.12,0.05,0.13
2025-01-03 10:48:28.884270,-0.022948760609401278,0.0006713733157005693,-0.7918543088999259,0.6102783439718175,-0.0011111111111111111,0.0,0.0,0.07,-0.07,-0.02
2025-01-03 10:48:28.897231,-0.022948760609401278,0.0006713733157005693,-0.7918543088999259,0.6102783439718175,-0.0022222222222222222,0.006666666666666667,0.0,0.07,-0.04,0.09
2025-01-03 10:48:28.908311,-0.03757436292831434,-0.012291613404741128,-9.993181629870835e-05,0.9992182311707848,-0.0011111111111111111,0.0022222222222222222,-0.0011111111111111111,0.0,-0.11,0.04
2025-01-03 10:48:28.921805,-0.022948760609401278,0.0006713733157005693,-0.7918543088999259,0.6102783439718175,0.0,0.0044444444444444444,-0.0022222222222222222,-0.03,-0.12,0.05
2025-01-03 10:48:28.935704,-0.022948760609401278,0.0006713733157005693,-0.7918543088999259,0.6102783439718175,0.0011111111111111111,0.0,-0.0022222222222222222,-0.12,-0.05,0.06
2025-01-03 10:48:28.948559,-0.022948760609401278,0.0006713733157005693,-0.7918543088999259,0.6102783439718175,0.0,0.0,-0.0011111111111111111,-0.09,-0.12,0.04
2025-01-03 10:48:28.960298,-0.022948760609401278,0.0006713733157005693,-0.7918543088999259,0.6102783439718175,0.0033333333333333335,-0.0022222222222222222,0.0,-0.06,-0.03,0.1
2025-01-03 10:48:28.974032,-0.022948760609401278,0.0006713733157005693,-0.7918543088999259,0.6102783439718175,0.0011111111111111111,-0.0044444444444444444,0.0,0.07,-0.08,0.01
2025-01-03 10:48:28.986226,-0.022948760609401278,0.0006713733157005693,-0.7918543088999259,0.6102783439718175,0.0044444444444444444,-0.0033333333333333335,0.0022222222222222222,0.04,0.07,0.19
2025-01-03 10:48:28.999779,-0.022948760609401278,0.0006713733157005693,-0.7918543088999259,0.6102783439718175,-0.0022222222222222222,-0.0033333333333333335,0.0033333333333333335,0.07,-0.03,-0.04
2025-01-03 10:48:29.011574,-0.022948760609401278,0.0006713733157005693,-0.7918543088999259,0.6102783439718175,0.0,-0.0022222222222222222,0.0,0.2,-0.04,0.11
2025-01-03 10:48:29.024826,-0.022948760609401278,0.0006713733157005693,-0.7918543088999259,0.6102783439718175,-0.0022222222222222222,-0.0011111111111111111,0.0011111111111111111,0.03,-0.09,0.08
2025-01-03 10:48:29.036641,-0.022948760609401278,0.0006713733157005693,-0.7918543088999259,0.6102783439718175,-0.0011111111111111111,0.0,-0.0011111111111111111,0.04,-0.11,0.03
2025-01-03 10:48:29.050411,-0.022948760609401278,0.0006713733157005693,-0.7918543088999259,0.6102783439718175,0.0,0.0033333333333333335,-0.0022222222222222222,-0.04,-0.07,0.07
2025-01-03 10:48:29.061754,-0.022948760609401278,0.0006713733157005693,-0.7918543088999259,0.6102783439718175,0.0,0.005555555555555556,-0.0033333333333333335,-0.08,-0.12,0.03
2025-01-03 10:48:29.074524,-0.022948760609401278,0.0006713733157005693,-0.7918543088999259,0.6102783439718175,0.0,0.0011111111111111111,-0.0033333333333333335,-0.17,-0.08,0.11
2025-01-03 10:48:29.085923,-0.022948760609401278,0.0006713733157005693,-0.7918543088999259,0.6102783439718175,0.0022222222222222222,-0.0011111111111111111,0.0,-0.06,-0.05,0.0
2025-01-03 10:48:29.100163,-0.022948760609401278,0.0006713733157005693,-0.7918543088999259,0.6102783439718175,0.0011111111111111111,0.0,0.0,0.04,0.0,0.08
2025-01-03 10:48:29.112316,-0.022948760609401278,0.0006713733157005693,-0.7918543088999259,0.6102783439718175,0.0044444444444444444,-0.005555555555555556,0.0033333333333333335,0.01,-0.05,-0.04
2025-01-03 10:48:29.124793,-0.022948760609401278,0.0006713733157005693,-0.7918543088999259,0.6102783439718175,0.0044444444444444444,-0.0044444444444444444,0.0033333333333333335,0.17,-0.07,0.01
2025-01-03 10:48:29.136610,-0.022948760609401278,0.0006713733157005693,-0.7918543088999259,0.6102783439718175,0.0011111111111111111,0.0033333333333333335,0.0011111111111111111,0.07,0.05,0.09
2025-01-03 10:48:29.149767,-0.022948760609401278,0.0006713733157005693,-0.7918543088999259,0.6102783439718175,-0.0033333333333333335,-0.0022222222222222222,0.0,0.18,-0.05,-0.06
2025-01-03 10:48:29.162181,-0.022948760609401278,0.0006713733157005693,-0.7918543088999259,0.6102783439718175,-0.0033333333333333335,0.0044444444444444444,0.0,0.11,-0.09,0.17
2025-01-03 10:48:29.175348,-0.022948760609401278,0.0006713733157005693,-0.7918543088999259,0.6102783439718175,-0.0022222222222222222,0.0044444444444444444,0.0,0.0,-0.1,0.12
2025-01-03 10:48:29.186578,-0.022948760609401278,0.0006713733157005693,-0.7918543088999259,0.6102783439718175,-0.0033333333333333335,0.0044444444444444444,-0.006666666666666667,-0.06,-0.09,0.04
2025-01-03 10:48:29.199520,-0.022948760609401278,0.0006713733157005693,-0.7918543088999259,0.6102783439718175,-0.0033333333333333335,0.005555555555555556,-0.0033333333333333335,-0.14,-0.09,0.0
2025-01-03 10:48:29.211880,-0.5,-0.5,-0.5,-0.5,0.0011111111111111111,0.0,-0.14333333333333334,-0.07,-0.12,0.06
2025-01-03 10:48:29.225126,-0.022948760609401278,0.0006713733157005693,-0.7918543088999259,0.6102783439718175,0.0044444444444444444,0.0,0.0,-0.06,-0.02,1.31
2025-01-03 10:48:29.237238,-0.022948760609401278,0.0006713733157005693,-0.7918543088999259,0.6102783439718175,0.0033333333333333335,-0.005555555555555556,0.0044444444444444444,0.0,-0.11,0.04
2025-01-03 10:48:29.249484,-0.022948760609401278,0.0006713733157005693,-0.7918543088999259,0.6102783439718175,0.0033333333333333335,-0.0033333333333333335,0.0033333333333333335,0.09,0.03,0.07
2025-01-03 10:48:29.260725,-0.022948760609401278,0.0006713733157005693,-0.7918543088999259,0.6102783439718175,-0.0033333333333333335,-0.0022222222222222222,0.0011111111111111111,0.1,-0.07,-0.07
2025-01-03 10:48:29.274593,-0.022948760609401278,0.0006713733157005693,-0.7918543088999259,0.6102783439718175,0.0044444444444444444,0.0,0.0011111111111111111,0.09,-0.06,0.05
2025-01-03 10:48:29.286568,-0.022948760609401278,0.0006713733157005693,-0.7918543088999259,0.6102783439718175,-0.0033333333333333335,0.0044444444444444444,0.0,0.13,-0.15,0.11
2025-01-03 10:48:29.299212,-0.022948760609401278,0.0006713733157005693,-0.7918543088999259,0.6102783439718175,-0.0011111111111111111,0.005555555555555556,-0.0022222222222222222,0.05,-0.08,0.06
2025-01-03 10:48:29.310211,-0.022948760609401278,0.0006713733157005693,-0.7918543088999259,0.6102783439718175,-0.0011111111111111111,0.0022222222222222222,-0.0011111111111111111,0.0,-0.09,0.11
2025-01-03 10:48:29.324085,-0.022948760609401278,0.0006713733157005693,-0.7918543088999259,0.6102783439718175,0.0,0.0033333333333333335,-0.006666666666666667,-0.04,-0.1,0.05
2025-01-03 10:48:29.336196,-0.022948760609401278,0.0006713733157005693,-0.7918543088999259,0.6102783439718175,0.0,0.0,-0.0044444444444444444,-0.13,-0.05,0.09
2025-01-03 10:48:29.348833,-0.022948760609401278,0.0006713733157005693,-0.7918543088999259,0.6102783439718175,0.0,0.0,0.0,-0.09,-0.07,0.01
2025-01-03 10:48:29.358331,-0.022948760609401278,0.0006713733157005693,-0.7918543088999259,0.6102783439718175,0.0022222222222222222,0.0,0.0,-0.04,0.0,0.11
2025-01-03 10:48:29.371556,-0.022948760609401278,0.0006713733157005693,-0.7918543088999259,0.6102783439718175,0.0011111111111111111,-0.0044444444444444444,0.0011111111111111111,-0.05,-0.06,0.01
2025-01-03 10:48:29.387389,-0.022948760609401278,0.0006713733157005693,-0.7918543088999259,0.6102783439718175,0.005555555555555556,-0.0033333333333333335,0.0022222222222222222,0.14,-0.03,0.12
2025-01-03 10:48:29.397929,-0.022948760609401278,0.0006713733157005693,-0.7918543088999259,0.6102783439718175,0.0022222222222222222,-0.0022222222222222222,0.0022222222222222222,0.1,0.0,0.07
2025-01-03 10:48:29.408430,-0.022948760609401278,0.0006713733157005693,-0.7918543088999259,0.6102783439718175,0.0,-0.0022222222222222222,0.0011111111111111111,0.14,-0.1,0.0
2025-01-03 10:48:29.422558,-0.022948760609401278,0.0006713733157005693,-0.7918543088999259,0.6102783439718175,-0.0033333333333333335,0.0022222222222222222,0.0,0.09,0.0,0.08
2025-01-03 10:48:29.435922,-0.022948760609401278,0.0006713733157005693,-0.7918543088999259,0.6102783439718175,-0.0011111111111111111,0.0022222222222222222,-0.0011111111111111111,0.04,-0.13,0.1
2025-01-03 10:48:29.448947,-0.022948760609401278,0.0006713733157005693,-0.7918543088999259,0.6102783439718175,-0.0022222222222222222,0.006666666666666667,-0.0077777777777777776,-0.03,-0.11,0.08
2025-01-03 10:48:29.458788,-0.022948760609401278,0.0006713733157005693,-0.7918543088999259,0.6102783439718175,0.0,0.0,-0.0033333333333333335,-0.08,-0.08,0.01
2025-01-03 10:48:29.471857,-0.022948760609401278,0.0006713733157005693,-0.7918543088999259,0.6102783439718175,0.0,0.0011111111111111111,-0.0033333333333333335,-0.09,-0.02,0.17
2025-01-03 10:48:29.486259,0.8923902038391355,0.00030304680915752317,-0.35742993654633687,0.27546954952418856,0.0,0.0,-0.0011111111111111111,-0.1,-0.01,0.02
2025-01-03 10:48:29.498572,-0.022948760609401278,0.0006713733157005693,-0.7918543088999259,0.6102783439718175,0.0033333333333333335,-0.0022222222222222222,0.0011111111111111111,0.0,-0.05,0.05
2025-01-03 10:48:29.509187,-0.022948760609401278,0.0006713733157005693,-0.7918543088999259,0.6102783439718175,0.0022222222222222222,-0.0044444444444444444,0.0022222222222222222,0.02,0.05,0.09
2025-01-03 10:48:29.523294,-0.022948760609401278,0.0006713733157005693,-0.7918543088999259,0.6102783439718175,0.0011111111111111111,-0.0033333333333333335,0.0011111111111111111,0.07,-0.04,0.06
2025-01-03 10:48:29.536575,-0.022948760609401278,0.0006713733157005693,-0.7918543088999259,0.6102783439718175,-0.0011111111111111111,-0.0022222222222222222,0.0022222222222222222,0.1,-0.06,-0.07
2025-01-03 10:48:29.549572,-0.022948760609401278,0.0006713733157005693,-0.7918543088999259,0.6102783439718175,-0.0011111111111111111,0.0,0.0011111111111111111,0.08,-0.06,0.0
2025-01-03 10:48:29.559716,-0.022948760609401278,0.0006713733157005693,-0.7918543088999259,0.6102783439718175,-0.0022222222222222222,0.0033333333333333335,0.0,0.08,-0.12,0.11
2025-01-03 10:48:29.573183,-0.022948760609401278,0.0006713733157005693,-0.7918543088999259,0.6102783439718175,-0.0011111111111111111,0.0022222222222222222,-0.0044444444444444444,0.02,-0.05,0.04
2025-01-03 10:48:29.587879,-0.022948760609401278,0.0006713733157005693,-0.7918543088999259,0.6102783439718175,0.0,0.006666666666666667,-0.0022222222222222222,-0.08,-0.09,0.07
2025-01-03 10:48:29.600393,-0.022948760609401278,0.0006713733157005693,-0.7918543088999259,0.6102783439718175,0.0,0.0033333333333333335,-0.0033333333333333335,-0.12,-0.08,0.0
2025-01-03 10:48:29.614007,-0.022948760609401278,0.0006713733157005693,-0.7918543088999259,0.6102783439718175,0.0011111111111111111,0.0011111111111111111,0.0,-0.1,-0.06,0.11
2025-01-03 10:48:29.625915,-0.022948760609401278,0.0006713733157005693,-0.7918543088999259,0.6102783439718175,0.0011111111111111111,-0.0022222222222222222,0.0,-0.07,0.02,0.13
2025-01-03 10:48:29.639166,-0.022948760609401278,0.0006713733157005693,-0.7918543088999259,0.6102783439718175,0.0011111111111111111,-0.0022222222222222222,0.0033333333333333335,-0.01,-0.08,0.01
2025-01-03 10:48:29.651848,-0.022948760609401278,0.0006713733157005693,-0.7918543088999259,0.6102783439718175,0.005555555555555556,-0.0077777777777777776,0.0011111111111111111,0.07,0.01,0.13
2025-01-03 10:48:29.663530,-0.022948760609401278,0.0006713733157005693,-0.7918543088999259,0.6102783439718175,-0.0033333333333333335,-0.0044444444444444444,0.0,0.07,0.0,-0.04
2025-01-03 10:48:29.676979,-0.022948760609401278,0.0006713733157005693,-0.7918543088999259,0.6102783439718175,0.0,0.0,0.0,0.1,-0.04,0.08
2025-01-03 10:48:29.688278,-0.022948760609401278,0.0006713733157005693,-0.7918543088999259,0.6102783439718175,0.0,0.0011111111111111111,0.0011111111111111111,0.06,-0.12,0.08
2025-01-03 10:48:29.702080,-0.022948760609401278,0.0006713733157005693,-0.7918543088999259,0.6102783439718175,-0.0022222222222222222,0.005555555555555556,0.0,0.07,-0.1,0.03
2025-01-03 10:48:29.714143,-0.022948760609401278,0.0006713733157005693,-0.7918543088999259,0.6102783439718175,-0.0011111111111111111,0.0022222222222222222,-0.0033333333333333335,-0.02,-0.12,0.08
2025-01-03 10:48:29.727776,-0.022948760609401278,0.0006713733157005693,-0.7918543088999259,0.6102783439718175,-0.0011111111111111111,0.0033333333333333335,-0.0022222222222222222,-0.08,-0.09,0.08
2025-01-03 10:48:29.739530,-0.022948760609401278,0.0006713733157005693,-0.7918543088999259,0.6102783439718175,0.0033333333333333335,0.0,0.0,-0.13,-0.03,0.15
2025-01-03 10:48:29.752297,-0.022948760609401278,0.0006713733157005693,-0.7918543088999259,0.6102783439718175,0.0033333333333333335,0.0,0.0,-0.1,-0.07,-0.01
2025-01-03 10:48:29.764866,-0.022948760609401278,0.0006713733157005693,-0.7918543088999259,0.6102783439718175,0.0,-0.0011111111111111111,0.0,0.0,0.03,0.12
2025-01-03 10:48:29.778316,-0.022948760609401278,0.0006713733157005693,-0.7918543088999259,0.6102783439718175,0.0011111111111111111,-0.0033333333333333335,0.0022222222222222222,0.0,0.02,0.09
2025-01-03 10:48:29.789730,-0.022948760609401278,0.0006713733157005693,-0.7918543088999259,0.6102783439718175,0.0,-0.0044444444444444444,0.0,0.1,0.01,0.02
2025-01-03 10:48:29.806310,-0.022948760609401278,0.0006713733157005693,-0.7918543088999259,0.6102783439718175,0.0,0.0,0.0011111111111111111,0.11,0.01,0.06
2025-01-03 10:48:29.819359,-0.022948760609401278,0.0006713733157005693,-0.7918543088999259,0.6102783439718175,-0.0022222222222222222,0.0022222222222222222,0.0011111111111111111,0.14,-0.01,0.06
2025-01-03 10:48:29.831858,-0.022948760609401278,0.0006713733157005693,-0.7918543088999259,0.6102783439718175,-0.0033333333333333335,0.0077777777777777776,-0.0011111111111111111,-0.01,-0.12,0.0
2025-01-03 10:48:29.846019,-0.022948760609401278,0.0006713733157005693,-0.7918543088999259,0.6102783439718175,-0.0033333333333333335,0.0033333333333333335,-0.0022222222222222222,0.02,-0.12,0.03
2025-01-03 10:48:29.858569,-0.022948760609401278,0.0006713733157005693,-0.7918543088999259,0.6102783439718175,0.0,0.006666666666666667,-0.0044444444444444444,-0.1,-0.09,0.04
2025-01-03 10:48:29.871491,-0.022948760609401278,0.0006713733157005693,-0.7918543088999259,0.6102783439718175,0.0,0.0011111111111111111,0.0,-0.09,-0.09,0.14
2025-01-03 10:48:29.884824,-0.022948760609401278,0.0006713733157005693,-0.7918543088999259,0.6102783439718175,0.0011111111111111111,0.0,0.0,-0.09,0.0,0.06
2025-01-03 10:48:29.898143,-0.022948760609401278,0.0006713733157005693,-0.7918543088999259,0.6102783439718175,0.0011111111111111111,0.0,0.0011111111111111111,0.06,-0.08,0.02
2025-01-03 10:48:29.909896,-0.022948760609401278,0.0006713733157005693,-0.7918543088999259,0.6102783439718175,0.005555555555555556,-0.005555555555555556,0.0033333333333333335,0.02,0.13,0.16
2025-01-03 10:48:29.921474,-0.022948760609401278,0.0006713733157005693,-0.7918543088999259,0.6102783439718175,0.0,-0.0011111111111111111,0.0022222222222222222,0.06,-0.06,0.0
2025-01-03 10:48:29.934969,-0.022948760609401278,0.0006713733157005693,-0.7918543088999259,0.6102783439718175,0.0,-0.0011111111111111111,0.0033333333333333335,0.12,-0.01,0.02
2025-01-03 10:48:29.948618,-0.022948760609401278,0.0006713733157005693,-0.7918543088999259,0.6102783439718175,0.0,0.0,0.0,0.08,-0.04,0.05
2025-01-03 10:48:29.959992,-0.022948760609401278,0.0006713733157005693,-0.7918543088999259,0.6102783439718175,-0.0022222222222222222,0.0077777777777777776,0.0,0.16,-0.12,0.06
2025-01-03 10:48:29.972419,-0.022948760609401278,0.0006713733157005693,-0.7918543088999259,0.6102783439718175,0.0,0.0044444444444444444,-0.0044444444444444444,-0.03,-0.08,0.05
2025-01-03 10:48:29.986491,-0.022948760609401278,0.0006713733157005693,-0.7918543088999259,0.6102783439718175,0.0,0.0044444444444444444,-0.0044444444444444444,-0.04,-0.15,0.03
2025-01-03 10:48:29.999259,-0.022948760609401278,0.0006713733157005693,-0.7918543088999259,0.6102783439718175,-0.0033333333333333335,0.0033333333333333335,-0.0044444444444444444,-0.11,-0.07,0.09
2025-01-03 10:48:30.010734,-0.022948760609401278,0.0006713733157005693,-0.7918543088999259,0.6102783439718175,0.0,-0.0022222222222222222,0.0,-0.04,-0.05,0.02
2025-01-03 10:48:30.026103,-0.022948760609401278,0.0006713733157005693,-0.7918543088999259,0.6102783439718175,0.0044444444444444444,-0.0033333333333333335,0.0011111111111111111,-0.05,-0.03,0.14
2025-01-03 10:48:30.038462,-0.022948760609401278,0.0006713733157005693,-0.7918543088999259,0.6102783439718175,0.0022222222222222222,-0.0011111111111111111,0.0033333333333333335,-0.01,-0.07,-0.05
2025-01-03 10:48:30.051353,-0.022948760609401278,0.0006713733157005693,-0.7918543088999259,0.6102783439718175,0.0,-0.0011111111111111111,0.0044444444444444444,0.08,-0.01,0.05
2025-01-03 10:48:30.061075,-0.022948760609401278,0.0006713733157005693,-0.7918543088999259,0.6102783439718175,0.0044444444444444444,-0.0022222222222222222,0.0011111111111111111,0.08,0.01,0.03
2025-01-03 10:48:30.073205,-0.022948760609401278,0.0006713733157005693,-0.7918543088999259,0.6102783439718175,-0.0033333333333333335,0.0,0.0022222222222222222,0.16,-0.03,0.09
2025-01-03 10:48:30.087102,-0.022948760609401278,0.0006713733157005693,-0.7918543088999259,0.6102783439718175,-0.0022222222222222222,0.0044444444444444444,0.0,0.07,-0.06,0.1
2025-01-03 10:48:30.100531,-0.022948760609401278,0.0006713733157005693,-0.7918543088999259,0.6102783439718175,-0.0022222222222222222,0.006666666666666667,-0.006666666666666667,0.02,-0.15,0.0
2025-01-03 10:48:30.111626,-0.022948760609401278,0.0006713733157005693,-0.7918543088999259,0.6102783439718175,-0.0022222222222222222,0.005555555555555556,-0.0033333333333333335,0.03,-0.08,0.12
2025-01-03 10:48:30.129946,-0.022948760609401278,0.0006713733157005693,-0.7918543088999259,0.6102783439718175,0.0,0.0,0.0,-0.11,-0.17,0.06
2025-01-03 10:48:30.141413,-0.022948760609401278,0.0006713733157005693,-0.7918543088999259,0.6102783439718175,0.0,-0.0033333333333333335,-0.0011111111111111111,-0.13,-0.04,0.12
2025-01-03 10:48:30.154258,-0.022948760609401278,0.0006713733157005693,-0.7918543088999259,0.6102783439718175,0.0033333333333333335,0.0,0.0033333333333333335,-0.03,-0.05,0.05
2025-01-03 10:48:30.168936,-0.022948760609401278,0.0006713733157005693,-0.7918543088999259,0.6102783439718175,0.0011111111111111111,-0.0022222222222222222,0.0022222222222222222,0.0,-0.04,0.07
2025-01-03 10:48:30.179784,-0.022948760609401278,0.0006713733157005693,-0.7918543088999259,0.6102783439718175,0.0033333333333333335,-0.0011111111111111111,0.0022222222222222222,0.01,0.07,0.12
2025-01-03 10:48:30.191634,-0.022948760609401278,0.0006713733157005693,-0.7918543088999259,0.6102783439718175,0.0011111111111111111,-0.0033333333333333335,0.0022222222222222222,0.11,0.05,0.08
2025-01-03 10:48:30.205019,-0.022948760609401278,0.0006713733157005693,-0.7918543088999259,0.6102783439718175,-0.0033333333333333335,-0.0011111111111111111,0.0,0.15,-0.01,0.13
2025-01-03 10:48:30.217296,-0.022948760609401278,0.0006713733157005693,-0.7918543088999259,0.6102783439718175,-0.0022222222222222222,0.0044444444444444444,0.0,0.1,-0.05,-0.1
2025-01-03 10:48:30.230164,-0.022948760609401278,0.0006713733157005693,-0.7918543088999259,0.6102783439718175,-0.0011111111111111111,0.0044444444444444444,-0.0011111111111111111,0.0,-0.1,0.0
2025-01-03 10:48:30.242849,-0.022948760609401278,0.0006713733157005693,-0.7918543088999259,0.6102783439718175,0.0,0.0044444444444444444,-0.005555555555555556,-0.02,-0.16,0.06
2025-01-03 10:48:30.256203,-0.022948760609401278,0.0006713733157005693,-0.7918543088999259,0.6102783439718175,0.0,0.0011111111111111111,-0.0033333333333333335,-0.03,-0.11,0.01
2025-01-03 10:48:30.269334,-0.022948760609401278,0.0006713733157005693,-0.7918543088999259,0.6102783439718175,0.0,0.0033333333333333335,-0.0022222222222222222,-0.1,-0.1,0.1
2025-01-03 10:48:30.281782,-0.022948760609401278,0.0006713733157005693,-0.7918543088999259,0.6102783439718175,0.0011111111111111111,0.0,0.0,-0.04,-0.01,0.08
2025-01-03 10:48:30.292820,-0.022948760609401278,0.0006713733157005693,-0.7918543088999259,0.6102783439718175,0.0,-0.0022222222222222222,0.0011111111111111111,-0.06,0.01,0.07
2025-01-03 10:48:30.309729,-0.022948760609401278,0.0006713733157005693,-0.7918543088999259,0.6102783439718175,0.0033333333333333335,-0.0011111111111111111,0.0022222222222222222,0.06,-0.09,0.02
2025-01-03 10:48:30.318547,-0.022948760609401278,0.0006713733157005693,-0.7918543088999259,0.6102783439718175,0.0,-0.0044444444444444444,0.0022222222222222222,0.05,0.0,0.0
2025-01-03 10:48:30.331011,-0.022948760609401278,0.0006713733157005693,-0.7918543088999259,0.6102783439718175,0.0,-0.0011111111111111111,0.0033333333333333335,0.18,-0.03,0.13
2025-01-03 10:48:30.343233,-0.022948760609401278,0.0006713733157005693,-0.7918543088999259,0.6102783439718175,0.0,-0.0022222222222222222,0.0011111111111111111,0.09,-0.03,0.0
2025-01-03 10:48:30.357353,-0.022948760609401278,0.0006713733157005693,-0.7918543088999259,0.6102783439718175,-0.0011111111111111111,0.0033333333333333335,0.0,0.04,-0.07,0.04
2025-01-03 10:48:30.370229,-0.022948760609401278,0.0006713733157005693,-0.7918543088999259,0.6102783439718175,-0.0022222222222222222,0.0033333333333333335,-0.0011111111111111111,-0.04,-0.1,0.11
2025-01-03 10:48:30.382068,-0.022948760609401278,0.0006713733157005693,-0.7918543088999259,0.6102783439718175,0.0,0.0022222222222222222,-0.0022222222222222222,-0.07,-0.13,0.02
2025-01-03 10:48:30.393842,-0.022948760609401278,0.0006713733157005693,-0.7918543088999259,0.6102783439718175,0.0,0.0033333333333333335,-0.0011111111111111111,-0.07,-0.12,0.06
2025-01-03 10:48:30.408271,-0.022948760609401278,0.0006713733157005693,-0.7918543088999259,0.6102783439718175,0.0011111111111111111,0.0011111111111111111,0.0,-0.09,-0.09,0.09
2025-01-03 10:48:30.421134,-0.022948760609401278,0.0006713733157005693,-0.7918543088999259,0.6102783439718175,0.0,-0.0022222222222222222,0.0,0.0,0.0,0.07
2025-01-03 10:48:30.433839,-0.022948760609401278,0.0006713733157005693,-0.7918543088999259,0.6102783439718175,0.0044444444444444444,-0.0033333333333333335,0.0033333333333333335,-0.01,0.01,0.12
2025-01-03 10:48:30.447749,-0.022948760609401278,0.0006713733157005693,-0.7918543088999259,0.6102783439718175,0.0033333333333333335,-0.0044444444444444444,0.0011111111111111111,0.05,0.05,0.14
2025-01-03 10:48:30.460987,-0.022948760609401278,0.0006713733157005693,-0.7918543088999259,0.6102783439718175,-0.0033333333333333335,-0.005555555555555556,0.0011111111111111111,0.08,0.03,0.05
2025-01-03 10:48:30.474589,-0.022948760609401278,0.0006713733157005693,-0.7918543088999259,0.6102783439718175,-0.0011111111111111111,0.0,0.0011111111111111111,0.13,-0.03,0.07
2025-01-03 10:48:30.488176,-0.022948760609401278,0.0006713733157005693,-0.7918543088999259,0.6102783439718175,-0.0011111111111111111,0.006666666666666667,0.0,0.09,-0.06,0.13
2025-01-03 10:48:30.501034,-0.022948760609401278,0.0006713733157005693,-0.7918543088999259,0.6102783439718175,0.0,0.0022222222222222222,0.0,0.01,-0.16,-0.01
2025-01-03 10:48:30.512362,-0.022948760609401278,0.0006713733157005693,-0.7918543088999259,0.6102783439718175,-0.0022222222222222222,0.005555555555555556,-0.0033333333333333335,-0.04,-0.06,0.1
2025-01-03 10:48:30.525568,-0.022948760609401278,0.0006713733157005693,-0.7918543088999259,0.6102783439718175,0.0,0.0022222222222222222,-0.0044444444444444444,-0.14,-0.11,0.04
2025-01-03 10:48:30.539603,-0.022948760609401278,0.0006713733157005693,-0.7918543088999259,0.6102783439718175,0.0022222222222222222,0.0011111111111111111,-0.0022222222222222222,-0.06,-0.08,0.07
2025-01-03 10:48:30.552307,-0.022948760609401278,0.0006713733157005693,-0.7918543088999259,0.6102783439718175,0.0011111111111111111,-0.0022222222222222222,0.0,-0.05,-0.01,0.04
2025-01-03 10:48:30.563259,-0.022948760609401278,0.0006713733157005693,-0.7918543088999259,0.6102783439718175,0.0011111111111111111,-0.0033333333333333335,0.0022222222222222222,-0.02,-0.1,0.05
2025-01-03 10:48:30.575337,-0.022948760609401278,0.0006713733157005693,-0.7918543088999259,0.6102783439718175,0.005555555555555556,-0.005555555555555556,0.0011111111111111111,0.03,-0.07,0.03
2025-01-03 10:48:30.588881,-0.022948760609401278,0.0006713733157005693,-0.7918543088999259,0.6102783439718175,-0.005555555555555556,-0.0033333333333333335,0.0033333333333333335,0.0,0.13,0.16
2025-01-03 10:48:30.601861,-0.022948760609401278,0.0006713733157005693,-0.7918543088999259,0.6102783439718175,0.0022222222222222222,0.0,0.0,0.13,-0.03,0.14
2025-01-03 10:48:30.613147,-0.022948760609401278,0.0006713733157005693,-0.7918543088999259,0.6102783439718175,-0.0022222222222222222,0.0022222222222222222,0.0,0.09,0.0,-0.1
2025-01-03 10:48:30.626028,-0.022948760609401278,0.0006713733157005693,-0.7918543088999259,0.6102783439718175,-0.0022222222222222222,0.0044444444444444444,-0.0022222222222222222,0.08,-0.05,0.08
2025-01-03 10:48:30.638721,-0.022948760609401278,0.0006713733157005693,-0.7918543088999259,0.6102783439718175,-0.0011111111111111111,0.0044444444444444444,-0.0033333333333333335,0.0,-0.1,0.02
2025-01-03 10:48:30.651755,-0.022948760609401278,0.0006713733157005693,-0.7918543088999259,0.6102783439718175,-0.0011111111111111111,0.0044444444444444444,-0.0044444444444444444,-0.02,-0.17,0.02
2025-01-03 10:48:30.663845,-0.022948760609401278,0.0006713733157005693,-0.7918543088999259,0.6102783439718175,0.0,0.0,0.0,-0.1,-0.07,0.09
2025-01-03 10:48:30.676547,-0.022948760609401278,0.0006713733157005693,-0.7918543088999259,0.6102783439718175,0.0,-0.0011111111111111111,0.0,-0.12,-0.08,0.07
2025-01-03 10:48:30.690136,-0.022948760609401278,0.0006713733157005693,-0.7918543088999259,0.6102783439718175,0.0,-0.0033333333333333335,0.0,-0.03,-0.02,0.12
2025-01-03 10:48:30.705378,-0.022948760609401278,0.0006713733157005693,-0.7918543088999259,0.6102783439718175,0.005555555555555556,-0.0044444444444444444,0.0022222222222222222,0.1,-0.06,-0.02
2025-01-03 10:48:30.718617,-0.022948760609401278,0.0006713733157005693,-0.7918543088999259,0.6102783439718175,-0.0033333333333333335,-0.0044444444444444444,0.0,0.08,0.07,0.18
2025-01-03 10:48:30.732021,-0.022948760609401278,0.0006713733157005693,-0.7918543088999259,0.6102783439718175,0.0022222222222222222,0.0,0.0022222222222222222,0.12,-0.1,0.04
2025-01-03 10:48:30.746096,-0.022948760609401278,0.0006713733157005693,-0.7918543088999259,0.6102783439718175,-0.0011111111111111111,0.005555555555555556,0.0,0.13,0.0,-0.03
2025-01-03 10:48:30.761497,-0.022948760609401278,0.0006713733157005693,-0.7918543088999259,0.6102783439718175,-0.0022222222222222222,0.0033333333333333335,-0.0022222222222222222,0.01,-0.13,0.04
2025-01-03 10:48:30.774105,-0.022948760609401278,0.0006713733157005693,-0.7918543088999259,0.6102783439718175,-0.0022222222222222222,0.008888888888888889,-0.0022222222222222222,-0.03,-0.08,0.17
2025-01-03 10:48:30.787836,-0.022948760609401278,0.0006713733157005693,-0.7918543088999259,0.6102783439718175,0.0,0.0,-0.0044444444444444444,-0.07,-0.09,-0.05
2025-01-03 10:48:30.800717,-0.022948760609401278,0.0006713733157005693,-0.7918543088999259,0.6102783439718175,0.0,0.0,0.0,-0.11,-0.03,0.09
2025-01-03 10:48:30.813416,-0.022948760609401278,0.0006713733157005693,-0.7918543088999259,0.6102783439718175,0.0,0.0,-0.0022222222222222222,-0.1,-0.01,0.01
2025-01-03 10:48:30.825772,-0.022948760609401278,0.0006713733157005693,-0.7918543088999259,0.6102783439718175,0.0022222222222222222,-0.0022222222222222222,0.0044444444444444444,-0.03,-0.04,0.04
2025-01-03 10:48:30.841767,-0.022948760609401278,0.0006713733157005693,-0.7918543088999259,0.6102783439718175,0.0022222222222222222,-0.005555555555555556,0.0011111111111111111,0.0,-0.03,0.1
2025-01-03 10:48:30.853476,-0.022948760609401278,0.0006713733157005693,-0.7918543088999259,0.6102783439718175,0.0,0.0,0.0044444444444444444,0.12,-0.05,0.01
2025-01-03 10:48:30.864427,-0.022948760609401278,0.0006713733157005693,-0.7918543088999259,0.6102783439718175,0.0,-0.0011111111111111111,0.0,0.14,0.05,0.15
2025-01-03 10:48:30.876217,-0.022948760609401278,0.0006713733157005693,-0.7918543088999259,0.6102783439718175,-0.0011111111111111111,0.0,0.0033333333333333335,0.1,-0.08,-0.02
2025-01-03 10:48:30.890329,-0.022948760609401278,0.0006713733157005693,-0.7918543088999259,0.6102783439718175,0.0,0.0022222222222222222,0.0,0.11,-0.1,0.16
2025-01-03 10:48:30.906052,-0.022948760609401278,0.0006713733157005693,-0.7918543088999259,0.6102783439718175,-0.0022222222222222222,0.0033333333333333335,-0.0022222222222222222,0.02,-0.1,0.0
2025-01-03 10:48:30.914531,-0.022948760609401278,0.0006713733157005693,-0.7918543088999259,0.6102783439718175,0.0,0.0022222222222222222,-0.0033333333333333335,-0.05,-0.07,0.06
2025-01-03 10:48:30.927137,-0.022948760609401278,0.0006713733157005693,-0.7918543088999259,0.6102783439718175,0.0,0.0,0.0,-0.15,-0.08,0.07
2025-01-03 10:48:30.942853,-0.022948760609401278,0.0006713733157005693,-0.7918543088999259,0.6102783439718175,0.0,0.0,0.0,-0.1,-0.05,0.09
2025-01-03 10:48:30.955288,-0.023070510376871793,0.0004882647698808845,-0.7919044236505596,0.6102088961586354,0.011111111111111112,-0.04,-0.013333333333333334,0.13,-0.21,0.0
2025-01-03 10:48:30.965395,-0.02319346819908071,0.00012207088525831953,-0.7921179744412354,0.6099271781931935,0.04,-0.06777777777777778,-0.06888888888888889,1.72,0.04,0.55
2025-01-03 10:48:30.975374,-0.023254298849700986,0.0003662094307039526,-0.7923551382331186,0.6096166323118464,-0.043333333333333335,0.022222222222222223,-0.0811111111111111,1.78,0.26,-1.35
2025-01-03 10:48:30.988377,-0.023132897904555826,0.0002441466797314599,-0.792439085738386,0.6095121859495897,0.03333333333333333,-0.0044444444444444444,-0.03111111111111111,1.11,-0.28,0.71
2025-01-03 10:48:31.002721,-0.02313229539339249,0.00024414032077459092,-0.7923574110739349,0.6096183809741536,-0.006666666666666667,-0.005555555555555556,0.025555555555555557,0.05,-0.52,0.95
2025-01-03 10:48:31.014275,-0.02301027915079492,0.00042724656248160334,-0.7929696199658557,0.6088263515362847,0.0033333333333333335,-0.016666666666666666,-0.15444444444444444,-0.16,-0.17,-0.14
2025-01-03 10:48:31.025005,-0.023131915287920395,0.0005493066954915134,-0.7934430045988526,0.608204580063659,-0.03777777777777778,0.005555555555555556,-0.15666666666666668,1.11,0.01,0.49
2025-01-03 10:48:31.038198,-0.023131990730170793,0.00030517138166452233,-0.7936286951567567,0.6079624265520613,0.04,-0.03333333333333333,-0.06333333333333334,1.89,0.04,-0.16
2025-01-03 10:48:31.051791,-0.023254783940050802,0.00018310853496102995,-0.7934703181644631,0.6081644807839008,0.0022222222222222222,-0.024444444444444446,0.04555555555555556,2.75,-0.14,0.47
2025-01-03 10:48:31.064940,-0.023193967452964384,0.00012207351291033887,-0.793233686891382,0.608475425101584,0.03111111111111111,0.0011111111111111111,0.02,2.55,-0.27,-0.21
2025-01-03 10:48:31.075689,-0.023193443487801318,0.00024414151039790864,-0.7933378380380041,0.6083396085339888,-0.017777777777777778,0.015555555555555555,-0.03222222222222222,1.91,0.09,0.16
2025-01-03 10:48:31.089548,-0.02313277535609846,0.0004272544261020824,-0.793472505618153,0.6081661573830213,-0.023333333333333334,0.028888888888888888,-0.052222222222222225,1.19,0.17,0.0
2025-01-03 10:48:31.103150,-0.0230102459771656,0.0004882810817435671,-0.7935788281037325,0.6080320170411769,0.006666666666666667,0.025555555555555557,-0.03222222222222222,0.39,0.03,-0.19
2025-01-03 10:48:31.115069,-0.02294891123965131,0.0004272403688232957,-0.7934463992432634,0.608207182189163,0.005555555555555556,-0.006666666666666667,0.03333333333333333,0.34,-0.17,-0.23
2025-01-03 10:48:31.126212,-0.02307143702211302,0.00036621328606528604,-0.7933400487127646,0.6083413037021176,0.0011111111111111111,-0.017777777777777778,0.03666666666666667,0.85,0.01,-0.28
2025-01-03 10:48:31.139068,-0.023010693576093373,0.0003662179348980378,-0.7932890833116328,0.6084100625106068,0.012222222222222223,0.0022222222222222222,0.016666666666666666,1.22,-0.03,0.83
2025-01-03 10:48:31.152751,-0.02313270050942271,0.00042725304370965433,-0.7932868298706253,0.6084083342425477,-0.03111111111111111,-0.01,0.005555555555555556,0.87,0.18,0.42
2025-01-03 10:48:31.164853,-0.023132436289661634,0.0006713899714677519,-0.7933388044670764,0.6083403496017349,-0.021111111111111112,0.028888888888888888,-0.015555555555555555,0.61,-0.28,-1.7
2025-01-03 10:48:31.175533,-0.02307116697540143,0.0009765573322921241,-0.7933917976540826,0.6082731483514568,-0.03888888888888889,0.05,-0.02,0.26,-0.06,-0.14
2025-01-03 10:48:31.189085,-0.02294889623633506,0.0012206859700178224,-0.7934458805115845,0.60820678456138,-0.025555555555555557,0.04666666666666667,-0.01,-0.03,-0.05,1.38
2025-01-03 10:48:31.202754,-0.023010748825919147,0.0013428023187539025,-0.7934740974454878,0.6081673774574493,-0.024444444444444446,0.013333333333333334,-0.012222222222222223,-0.16,0.0,1.7
2025-01-03 10:48:31.214993,-0.02313203989082369,0.0014037913390209627,-0.7938134850133322,0.607719580983988,-0.015555555555555555,-0.011111111111111112,-0.05,-0.28,0.24,-1.31
2025-01-03 10:48:31.227765,-0.023010039652413324,0.0012817263466861533,-0.793815850714291,0.607721392093049,0.03111111111111111,-0.005555555555555556,-0.005555555555555556,0.09,0.26,0.35
2025-01-03 10:48:31.241701,-0.02307097454497269,0.0011596521596679394,-0.793629317482222,0.6079629032869656,0.022222222222222223,-0.02666666666666667,0.06,0.16,0.25,0.49
2025-01-03 10:48:31.254718,-0.02294888661884012,0.0015258568230611782,-0.7934455479918125,0.6082065296721856,-0.024444444444444446,0.028888888888888888,0.058888888888888886,0.51,-0.33,-1.14
2025-01-03 10:48:31.268359,-0.02276535956642076,0.0016478946603039155,-0.7935528286396856,0.6080731296521449,-0.005555555555555556,0.04555555555555556,-0.028888888888888888,0.55,-0.33,-0.79
2025-01-03 10:48:31.275618,-0.022643927444593866,0.0019531150356523013,-0.7936360877683398,0.6079680896916428,-0.034444444444444444,0.06333333333333334,-0.028888888888888888,-0.23,-0.41,1.65
2025-01-03 10:48:31.288197,-0.022643424034665634,0.0017089376629936326,-0.7937405109725784,0.6078325066340567,0.042222222222222223,-0.027777777777777776,-0.028888888888888888,-0.77,-0.69,2.19
2025-01-03 10:48:31.301695,-0.02258327391488938,0.0012817533843585865,-0.7937715601706389,0.6077952476877526,0.07444444444444444,-0.04777777777777778,-0.012222222222222223,-0.97,-0.42,0.41
2025-01-03 10:48:31.314456,-0.022888225501675654,0.0012207053600893681,-0.7935805545940983,0.6080333398605143,-0.024444444444444446,0.008888888888888889,0.017777777777777778,-0.31,0.34,-1.32
2025-01-03 10:48:31.325113,-0.022766155728964375,0.0007934585106609568,-0.793397475390906,0.6082775013266997,0.0044444444444444444,-0.06,0.03777777777777778,0.18,0.39,0.92
2025-01-03 10:48:31.337117,-0.022766081138183698,0.0007934559109822737,-0.7932117707019715,0.6085196486533283,0.0022222222222222222,0.0077777777777777776,0.057777777777777775,0.59,0.22,3.54
2025-01-03 10:48:31.350372,-0.022949089144464946,0.0008544873617619927,-0.7932084109613469,0.6085170711976476,-0.027777777777777776,-0.02,0.0,0.43,-0.4,0.21
2025-01-03 10:48:31.364860,-0.022827155538155824,0.0009765628037713722,-0.7933962428890041,0.6082765563990934,-0.008888888888888889,0.03111111111111111,-0.06555555555555556,-0.29,-0.79,-3.81
2025-01-03 10:48:31.377076,-0.022948776510070847,0.0012817135816794887,-0.7938689789002433,0.6076543056762377,-0.005555555555555556,0.0,-0.056666666666666664,-0.4,-0.38,1.18
2025-01-03 10:48:31.389179,-0.02288803276122904,0.0013427645886587704,-0.793818010913453,0.6077230458761534,0.0033333333333333335,0.023333333333333334,0.023333333333333334,-1.11,0.37,2.5
2025-01-03 10:48:31.402571,-0.023132558703464458,0.0015869301485226276,-0.7937092173610866,0.6078552826591096,-0.07,-0.013333333333333334,0.03111111111111111,-1.17,0.43,-1.03
2025-01-03 10:48:31.415568,-0.023254374563205855,0.0014648424921704475,-0.7939446307563826,0.6075434236276931,-0.03333333333333333,-0.017777777777777778,-0.025555555555555557,0.55,-0.21,2.02
2025-01-03 10:48:31.427020,-0.023254648359460957,0.001159680626849759,-0.7938929428123587,0.6076116126468079,0.05,-0.03666666666666667,0.017777777777777778,0.21,-0.28,1.31
2025-01-03 10:48:31.442310,-0.023071241748684794,0.0009155254662176506,-0.7935774741174595,0.6080309796306823,0.06222222222222222,0.005555555555555556,0.10333333333333333,0.07,-0.63,1.19
2025-01-03 10:48:31.456084,-0.023071614938400025,0.0007934682386222231,-0.7931020225120897,0.6086511750416007,0.02666666666666667,-0.057777777777777775,0.10333333333333333,0.14,-0.51,0.45
2025-01-03 10:48:31.468416,-0.02282725907242306,0.001037602685110139,-0.7929725932324075,0.6088286343513905,0.0011111111111111111,0.06777777777777778,0.034444444444444444,0.14,-0.04,0.67
2025-01-03 10:48:31.478598,-0.022949784132808192,0.0009155498989152205,-0.7928662124605809,0.6089627560984769,0.0,-0.03,0.03888888888888889,-0.24,0.42,1.25
2025-01-03 10:48:31.491712,-0.022827691040239264,0.0010376223200108756,-0.7926824158812495,0.6092063750605029,-0.008888888888888889,0.03111111111111111,0.06777777777777778,-0.82,0.28,0.44
2025-01-03 10:48:31.504950,-0.02258358773093277,0.0010376243011509653,-0.792500819184949,0.6094516851171993,0.021111111111111112,0.04,0.056666666666666664,-0.26,-0.45,-0.96
2025-01-03 10:48:31.516755,-0.023193112355637875,0.0010375866053837998,-0.7925940975008249,0.6093074753850867,-0.035555555555555556,-0.027777777777777776,-0.027777777777777776,-0.1,-0.42,-1.48
2025-01-03 10:48:31.527528,-0.02270484171918694,0.0007934487697565328,-0.7926553209867763,0.6092465861315162,0.09444444444444444,0.03888888888888889,-0.01888888888888889,0.62,-0.36,2.86
2025-01-03 10:48:31.541734,-0.02313212145252815,0.00036620772748065673,-0.7925955915106347,0.609308623906566,0.017777777777777778,-0.1111111111111111,0.01,0.32,-0.01,0.75
2025-01-03 10:48:31.554939,-0.023315124218334586,0.0005493092093324902,-0.7925921547101908,0.6093059818629166,-0.04888888888888889,-0.012222222222222223,0.005555555555555556,0.75,0.48,-0.72
2025-01-03 10:48:31.567066,-0.023315728523873026,0.0006713953239858725,-0.7926737338731387,0.6091997026093631,-0.005555555555555556,-0.04666666666666667,-0.024444444444444446,0.09,0.11,-1.55
2025-01-03 10:48:31.576854,-0.023193200612961262,0.0007934515999170958,-0.792780217794089,0.6090656550440537,0.0044444444444444444,0.03111111111111111,-0.03333333333333333,0.09,-0.21,1.49
2025-01-03 10:48:31.590640,-0.02307042151692746,0.0006713614727148203,-0.7929389321373587,0.6088638228911861,0.028888888888888888,0.0077777777777777776,-0.05333333333333334,0.03,-0.2,1.92
2025-01-03 10:48:31.603849,-0.023070759903491556,0.0006713713199428759,-0.7930726301216118,0.6086896521627547,-0.0033333333333333335,-0.006666666666666667,-0.04777777777777778,0.4,-0.24,0.47
2025-01-03 10:48:31.616443,-0.02325470059885788,0.0008545034340787672,-0.7932843666229813,0.6084064450640823,-0.052222222222222225,0.013333333333333334,-0.03,0.2,0.37,-2.75
2025-01-03 10:48:31.626784,-0.023132691589919128,0.000976578009073103,-0.793286523995195,0.6084080996525432,0.0011111111111111111,-0.01888888888888889,-0.03111111111111111,0.72,0.35,-0.48
2025-01-03 10:48:31.640473,-0.023132095988638725,0.000854483756836259,-0.7932050645602873,0.6085145039755359,0.012222222222222223,-0.016666666666666666,0.021111111111111112,0.27,0.37,2.03
2025-01-03 10:48:31.652452,-0.023193100994146683,0.0006713792393042461,-0.7932040539998165,0.6085137287148485,0.022222222222222223,-0.03777777777777778,0.008888888888888889,0.21,0.02,0.13
2025-01-03 10:48:31.666322,-0.023315180152080502,0.000671379533175093,-0.7933875047039122,0.6082698570566343,-0.023333333333333334,0.022222222222222223,-0.03222222222222222,0.66,-0.42,-0.07
2025-01-03 10:48:31.677059,-0.023193441414131117,0.0004882829771396025,-0.7933377671075691,0.6083395541438021,0.013333333333333334,-0.03777777777777778,-0.03333333333333333,0.81,-0.19,1.84
2025-01-03 10:48:31.689570,-0.022948758557704382,0.0005493053910088816,-0.7930749167521562,0.608691407170175,0.013333333333333334,0.04111111111111111,0.08222222222222222,0.73,0.12,1.78
2025-01-03 10:48:31.701964,-0.022949532599412827,0.0005493239186029666,-0.7929185585079043,0.6088950457759105,-0.0022222222222222222,-0.0044444444444444444,0.058888888888888886,0.57,0.12,0.39
2025-01-03 10:48:31.715689,-0.023071539774712876,0.0005493223755884018,-0.7929163312521031,0.6088933354299885,0.0077777777777777776,-0.016666666666666666,0.0044444444444444444,0.51,0.31,-0.76
2025-01-03 10:48:31.726638,-0.02288852594092086,0.0007324328301094675,-0.7929195746626744,0.6088958260976707,-0.01,0.05444444444444444,-0.008888888888888889,0.11,0.17,0.8
2025-01-03 10:48:31.738808,-0.022888195019285747,6.103518671809532e-05,-0.7927860402813401,0.6090701282598732,0.058888888888888886,-0.03777777777777778,0.04555555555555556,0.25,-0.11,1.78
2025-01-03 10:48:31.752011,-0.022766105521104113,0.0003051756772265967,-0.792602268892917,0.609313757150623,-0.02,0.04111111111111111,0.05555555555555555,0.72,-0.26,-0.18
2025-01-03 10:48:31.766281,-0.023010371600542236,0.0006103546843645155,-0.7925455576473234,0.6093781168695322,-0.07555555555555556,-0.006666666666666667,0.027777777777777776,0.96,-0.1,-2.77
2025-01-03 10:48:31.777290,-0.023010114269843653,0.0006103478586165426,-0.7925977291994422,0.6093102672568944,0.008888888888888889,0.0044444444444444444,-0.16111111111111112,0.54,0.23,2.15
2025-01-03 10:48:31.789707,-0.022827101624360087,0.0008544904351364738,-0.7926009136201607,0.609312715283387,-0.015555555555555555,0.012222222222222223,0.011111111111111112,0.36,0.28,1.7
2025-01-03 10:48:31.802626,-0.022827352956048378,0.0010376069525476535,-0.7925486046371342,0.6093804596609278,-0.035555555555555556,0.016666666666666666,0.02,-0.56,0.26,0.81
2025-01-03 10:48:31.816261,-0.023009848676242818,0.0010375793832788538,-0.792649614743675,0.6092422002287953,-0.024444444444444446,-0.017777777777777778,-0.03333333333333333,0.03,-0.01,-0.32
2025-01-03 10:48:31.827090,-0.022765671135209838,0.0007324076504625148,-0.7928923155965442,0.6089359273887092,0.03333333333333333,-0.035555555555555556,-0.06777777777777778,0.48,-0.09,1.18
2025-01-03 10:48:31.839628,-0.022765845709215405,0.0007324132667844098,-0.7926542579774275,0.6092457690868315,0.0,0.0,0.07444444444444444,0.84,-0.09,0.63
2025-01-03 10:48:31.853128,-0.02252116276273263,0.0007934284984160547,-0.7923909380719723,0.6095972186291965,0.014444444444444444,0.03888888888888889,0.09333333333333334,0.8,-0.67,0.22
2025-01-03 10:48:31.867363,-0.022460997326800514,0.0007324238258739298,-0.7924215442767693,0.609559729083578,-0.0011111111111111111,0.03333333333333333,0.02666666666666667,-0.42,-0.57,-0.13
2025-01-03 10:48:31.878010,-0.02258308781890034,0.0007934598422856876,-0.7926053470709185,0.6093161235029246,-0.012222222222222223,-0.011111111111111112,-0.06222222222222222,-0.67,0.0,0.12
2025-01-03 10:48:31.889918,-0.0225828380015227,0.0006103469730141271,-0.7926576138534468,0.6092483484627016,0.02,-0.01888888888888889,-0.016666666666666666,-0.58,0.08,-0.06
2025-01-03 10:48:31.902618,-0.022705609578693525,0.0003051829244448054,-0.7924990181982707,0.6094503001162764,0.034444444444444444,-0.06333333333333334,0.06111111111111111,-0.37,0.37,2.0
2025-01-03 10:48:31.916893,-0.022704340850838126,0.00024413269732084005,-0.7921495696317958,0.6099045110817887,0.014444444444444444,0.0,0.11555555555555555,0.49,-0.15,-1.5
2025-01-03 10:48:31.929786,-0.022582499316407992,0.00024413512774495126,-0.7919133206226856,0.6102157517985056,0.011111111111111112,0.013333333333333334,0.08333333333333333,0.52,-0.07,-0.72
2025-01-03 10:48:31.938049,-0.022949454328216504,0.0003662146967268591,-0.7921223890201963,0.6099305773985839,0.014444444444444444,-0.06777777777777778,-0.01,0.3,0.21,0.02
2025-01-03 10:48:31.950001,-0.023193551751439046,0.0006713922875416565,-0.7923039349616585,0.6096852327503279,-0.08333333333333333,-0.0022222222222222222,-0.06444444444444444,0.06,0.03,0.22
2025-01-03 10:48:31.964394,-0.023193036108688062,0.000549308749942612,-0.7924083889449924,0.6095496095196518,0.023333333333333334,-0.013333333333333334,-0.04111111111111111,-0.43,-0.23,-0.41
2025-01-03 10:48:31.975429,-0.023253777018381157,0.0006103353548131537,-0.7924594246893988,0.6094808853164153,-0.016666666666666666,0.0,-0.014444444444444444,-0.57,-0.46,-0.43
2025-01-03 10:48:31.986617,-0.023376642932805773,0.0008544986972827175,-0.792486506108486,0.609440678026281,-0.05555555555555555,-0.008888888888888889,0.0,-0.19,-0.41,0.44
2025-01-03 10:48:31.999218,-0.023193036108688062,0.000549308749942612,-0.7924083889449924,0.6095496095196518,0.044444444444444446,-0.0044444444444444444,0.016666666666666666,0.29,-0.38,0.54
2025-01-03 10:48:32.011338,-0.02301028725135411,0.0005493172022869681,-0.7923595466766022,0.6096200240491375,0.016666666666666666,0.02666666666666667,0.014444444444444444,0.18,-0.51,0.39
2025-01-03 10:48:32.021074,-0.023193296258599075,0.0004272449310794566,-0.7923562421819295,0.6096174816602304,0.0077777777777777776,-0.044444444444444446,-0.0044444444444444444,-0.14,-0.19,-0.4
2025-01-03 10:48:32.031788,-0.02325403987872118,0.0003051711270173383,-0.7924073484132207,0.6095488091044315,0.013333333333333334,-0.022222222222222223,-0.014444444444444444,-0.53,0.0,-0.63
2025-01-03 10:48:32.046632,-0.023193039219030508,0.00018310294120287243,-0.7924084952122976,0.6095496912643623,0.025555555555555557,0.005555555555555556,-0.0077777777777777776,-0.46,0.29,0.62
2025-01-03 10:48:32.059591,-0.023437304773944567,0.00012206929569762796,-0.792351798373303,0.609614062713954,-0.035555555555555556,-0.006666666666666667,0.022222222222222223,0.0,0.36,0.94
2025-01-03 10:48:32.070300,-0.023437301412536873,0.000549311751856333,-0.7923516847332128,0.6096139752823393,-0.07222222222222222,0.05555555555555555,0.008888888888888889,0.12,-0.6,-0.46
2025-01-03 10:48:32.080570,-0.023559393158345304,0.0002441387892056508,-0.792535544458844,0.6093704178573044,0.024444444444444446,-0.05555555555555555,-0.06111111111111111,0.33,-0.53,-1.39
2025-01-03 10:48:32.094382,-0.02368094864991559,0.00024413349123624323,-0.7928235127896999,0.6089909938888087,-0.01,-0.014444444444444444,-0.10444444444444445,0.39,-0.87,-0.28
2025-01-03 10:48:32.111097,-0.02380345546682478,0.0003051725059849331,-0.7933264465584321,0.6083308734303656,-0.012222222222222223,-0.0022222222222222222,-0.10555555555555556,-0.22,0.11,1.05
2025-01-03 10:48:32.119636,-0.02380407136820468,6.103608043129405e-05,-0.7934080095263913,0.6082245414978452,0.03888888888888889,-0.017777777777777778,-0.022222222222222223,-0.11,0.38,0.69
2025-01-03 10:48:32.131322,-0.023681456157073514,-6.103468081719978e-05,-0.7933287812619627,0.6083326637050303,0.03222222222222222,0.006666666666666667,0.03,-0.31,0.44,0.47
2025-01-03 10:48:32.146276,-0.023926265510603884,-6.103639160868338e-05,-0.7931679089548405,0.6085328243385733,-0.03111111111111111,-0.03888888888888889,0.04111111111111111,-0.17,-0.1,-1.53
2025-01-03 10:48:32.157296,-0.02398726669315761,-0.0001220726040364255,-0.7931667447266747,0.6085319311215811,-0.006666666666666667,-0.01888888888888889,0.0022222222222222222,0.87,-0.08,0.89
2025-01-03 10:48:32.170413,-0.023376109635730224,-0.0001831026864417511,-0.7932008376656658,0.6085112612747529,0.03666666666666667,0.02666666666666667,0.011111111111111112,0.5,-0.45,1.06
2025-01-03 10:48:32.180012,-0.023254631292934938,-0.00018310733301523573,-0.7930988950666578,0.6086487749426436,0.017777777777777778,0.012222222222222223,0.027777777777777776,-0.18,-0.19,-0.88
2025-01-03 10:48:32.193358,-0.02319388912379064,-0.0002441462013030594,-0.7930478983826627,0.6087175163988529,0.016666666666666666,0.0033333333333333335,0.02666666666666667,-0.3,0.11,-0.36
2025-01-03 10:48:32.207233,-0.02319328813688196,-0.00024413987512507328,-0.792966314406238,0.6088238135931514,0.008888888888888889,0.0022222222222222222,0.028888888888888888,-0.69,0.57,0.35
2025-01-03 10:48:32.219000,-0.023497866081511998,-0.0003051670919676883,-0.7926410046768736,0.6092355824042929,0.006666666666666667,-0.015555555555555555,0.052222222222222225,-0.2,0.31,-0.64
2025-01-03 10:48:32.229566,-0.02368174552044937,-0.00012207085319819263,-0.7926670852424639,0.6091945928855803,-0.024444444444444446,-0.042222222222222223,0.04555555555555556,0.1,-0.05,-2.93
2025-01-03 10:48:32.242095,-0.023620214962782417,-6.103414719065224e-05,-0.792772537859382,0.6090597548155187,-0.0033333333333333335,0.015555555555555555,-0.044444444444444446,0.72,-0.46,-2.12
2025-01-03 10:48:32.256290,-0.023620562747967082,-6.1035045860380056e-05,-0.7929062807721973,0.6088856175031514,-0.0044444444444444444,-0.0011111111111111111,-0.03777777777777778,0.66,-0.4,2.38
2025-01-03 10:48:32.269591,-0.02343782174947103,6.103599413924747e-05,-0.7928575638688248,0.6089561135272721,0.012222222222222223,0.043333333333333335,0.0,-0.66,-0.18,-0.43
2025-01-03 10:48:32.279470,-0.023559561272582616,-0.00018310539849157476,-0.7929074106013492,0.6088864851173166,0.017777777777777778,-0.04555555555555556,-0.014444444444444444,-0.76,0.3,-1.07
2025-01-03 10:48:32.290993,-0.023681295997240864,-0.0003662056082047556,-0.7929572102993642,0.6088168236404062,0.015555555555555555,-0.04111111111111111,-0.02666666666666667,-0.83,0.45,-0.55
2025-01-03 10:48:32.304020,-0.02362143621627243,-0.0006103730288442489,-0.7929356017715637,0.6088470962721383,0.044444444444444446,-0.03,0.01,-0.36,0.68,1.78
2025-01-03 10:48:32.317329,-0.023743353545826924,-0.0009155534786308583,-0.7927472386971725,0.6090872108838223,0.03222222222222222,-0.05444444444444444,0.06333333333333334,0.78,-0.39,-0.75
2025-01-03 10:48:32.328127,-0.023926278479886848,-0.0006714006716294779,-0.7925579746462518,0.6093266277160979,-0.06666666666666667,-0.0022222222222222222,0.06444444444444444,0.78,-0.39,-0.75
2025-01-03 10:48:32.343510,-0.015095343577469599,-0.0005336737628398343,-0.495096773697412,-0.8687065272397846,0.04888888888888889,-0.05333333333333334,-0.06777777777777778,0.91,-0.94,-0.74
2025-01-03 10:48:32.357167,-0.02417045371366862,-0.0006714014920463506,-0.79292516210674,0.608839080287486,-0.03888888888888889,0.014444444444444444,-0.056666666666666664,0.32,-0.71,0.28
2025-01-03 10:48:32.369735,-0.023864904876283937,-0.0009155334351515577,-0.7930350615282793,0.608707663251099,-0.006666666666666667,0.013333333333333334,-0.03,-0.47,0.0,1.56
2025-01-03 10:48:32.379672,-0.024231177376854828,-0.0009155356691506862,-0.7929759609070477,0.6087701842739296,0.08555555555555555,-0.14777777777777779,-0.011111111111111112,-0.81,0.27,-0.22
2025-01-03 10:48:32.391399,-0.02429182486448629,-0.000671382094244596,-0.7928412185670274,0.6089435594798486,-0.05333333333333334,0.023333333333333334,0.03666666666666667,0.19,0.29,-0.01
2025-01-03 10:48:32.403077,-0.024170098085158968,-0.000671391613476638,-0.7927914243134592,0.6090132290245358,0.021111111111111112,0.016666666666666666,0.016666666666666666,0.4,0.18,-0.59
2025-01-03 10:48:32.416548,-0.02429209526164533,-0.0007934603979934405,-0.7927890084259076,0.6090113731675807,0.0033333333333333335,-0.035555555555555556,-0.008888888888888889,0.65,-0.02,0.56
2025-01-03 10:48:32.427887,-0.024170456279977732,-0.0004882920460601562,-0.7929252462959362,0.6088391449312572,-0.03111111111111111,0.05555555555555555,-0.03666666666666667,1.07,-0.27,2.17
2025-01-03 10:48:32.437846,-0.02423154202999059,-0.0001831098893953949,-0.7931099676012537,0.6085962357204941,-0.06222222222222222,0.03222222222222222,-0.06111111111111111,0.45,-0.58,0.66
2025-01-03 10:48:32.450715,-0.0231938538694408,6.103645755116e-05,-0.7936570575377335,0.6079231172095536,0.0,0.15444444444444444,-0.08777777777777777,0.01,-0.38,2.23
2025-01-03 10:48:32.463204,-0.023497730452800927,6.103306611117124e-05,-0.7936739917096708,0.6078893384672656,-0.034444444444444444,-0.04888888888888889,-0.011111111111111112,-0.86,0.04,0.44
2025-01-03 10:48:32.473085,-0.02313251466701873,0.0003051782937601415,-0.79352459943512,0.6080982681464581,-0.008888888888888889,0.0811111111111111,0.057777777777777775,-0.86,0.08,0.0
2025-01-03 10:48:32.484642,-0.023437449490465518,-0.0004882801977180317,-0.793333251242372,0.6083360913319527,0.09777777777777778,-0.1388888888888889,0.04888888888888889,-0.27,-0.16,-1.21
2025-01-03 10:48:32.498326,-0.023193956565464177,-0.0009765876448616494,-0.7932333145388748,0.6084751394766115,0.10555555555555556,-0.025555555555555557,0.03666666666666667,0.67,0.39,0.35
2025-01-03 10:48:32.511931,-0.023376628171724444,-0.000854498157713165,-0.7930963615232047,0.6086468306225487,-0.05333333333333334,0.06333333333333334,0.042222222222222223,1.07,0.46,-1.23
2025-01-03 10:48:32.521711,-0.023315625812502617,-0.0008544993753273211,-0.7930974916430864,0.6086476979117176,-0.0011111111111111111,0.013333333333333334,0.0,0.88,0.05,-0.52
2025-01-03 10:48:32.533467,-0.023437636032487854,-0.0004882840840101637,-0.7930954234535083,0.608646110718669,-0.07222222222222222,0.03,-0.0033333333333333335,-0.73,-0.48,0.69
2025-01-03 10:48:32.547566,-0.023560245746635206,-0.0007324428729523899,-0.7931745945013589,0.6085379536112773,0.024444444444444446,-0.052222222222222225,-0.01888888888888889,0.0,-0.11,0.91
2025-01-03 10:48:32.560264,-0.023743337889141992,0.00012207371665368634,-0.7933570845323075,0.608293330085319,-0.04555555555555556,0.04111111111111111,-0.022222222222222223,-0.35,-0.48,-0.18
2025-01-03 10:48:32.572373,-0.024108529092927204,-0.00030517125434085065,-0.7935062955370799,0.6080842413995791,0.017777777777777778,-0.10444444444444445,-0.05444444444444444,1.27,-0.54,0.1
2025-01-03 10:48:32.583012,-0.02392614963478488,-6.103609600710429e-05,-0.7935913202843701,0.6079805523267658,-0.015555555555555555,0.057777777777777775,-0.02666666666666667,0.63,0.23,2.09
2025-01-03 10:48:32.596492,-0.023864262786690505,0.0,-0.7935630300576725,0.6080199127391581,-0.0011111111111111111,0.012222222222222223,0.011111111111111112,0.56,-0.25,-0.35
2025-01-03 10:48:32.610822,-0.023864262786690505,0.0,-0.7935630300576725,0.6080199127391581,0.0033333333333333335,0.0,0.0033333333333333335,-0.33,0.38,-2.54
2025-01-03 10:48:32.622226,-0.02386487682684323,-0.0003051774530286858,-0.7936444843464003,0.6079134864331421,0.04111111111111111,-0.03777777777777778,-0.013333333333333334,-0.34,-0.51,0.8
2025-01-03 10:48:32.632746,-0.023559263619367582,-6.103436170820618e-05,-0.7935687709300967,0.60802431133715,-0.008888888888888889,0.08222222222222222,0.03666666666666667,-0.07,-0.1,0.09
2025-01-03 10:48:32.645970,-0.023315185406746573,0.0,-0.7933876835138709,0.6082699941456449,0.025555555555555557,0.04666666666666667,0.056666666666666664,0.19,-0.26,1.52
2025-01-03 10:48:32.659436,-0.02343684632621165,-0.00012206690794901901,-0.7932518013067,0.6084425026718853,-0.0044444444444444444,-0.04111111111111111,0.043333333333333335,-0.05,-0.29,-0.3
2025-01-03 10:48:32.672605,-0.023498375662061727,-0.00018310422593814334,-0.7931464720220576,0.608577412276409,0.03666666666666667,-0.02666666666666667,0.012222222222222223,-0.04,-0.43,-0.97
2025-01-03 10:48:32.682971,-0.0236819083802337,-0.0004882867707264681,-0.7930387515061249,0.6087104955568833,0.027777777777777776,-0.06888888888888889,0.034444444444444444,-0.3,-0.25,0.13
2025-01-03 10:48:32.696248,-0.02362081810818568,-0.0009155355855885924,-0.7928538171197209,0.6089532358278257,0.0811111111111111,-0.044444444444444446,0.058888888888888886,0.42,-0.11,0.48
2025-01-03 10:48:32.709522,-0.023498387610882614,-0.0006713825031680747,-0.7925365276034045,0.6093711737845507,-0.02666666666666667,0.05333333333333334,0.1,0.71,0.68,-1.39
2025-01-03 10:48:32.721579,-0.023498305238795383,-0.00024413823624722477,-0.792350645740368,0.6096131759093203,-0.011111111111111112,0.016666666666666666,0.06555555555555556,-0.24,0.32,-3.12
2025-01-03 10:48:32.731806,-0.02374186284990452,0.0003051653322609836,-0.7926364340146788,0.6092320693258276,-0.11777777777777777,0.03,-0.09222222222222222,-0.22,0.28,-2.3
2025-01-03 10:48:32.743883,-0.0236209078646059,0.00036621562580784346,-0.793039937686885,0.6087114060302704,-0.0044444444444444444,0.023333333333333334,-0.13111111111111112,-0.39,0.2,0.99
2025-01-03 10:48:32.756807,-0.023498110166589894,0.00030517026190376485,-0.7931985447402656,0.6085095022361071,0.014444444444444444,0.014444444444444444,-0.052222222222222225,-0.71,-0.01,1.68
2025-01-03 10:48:32.770690,-0.023558764923027786,0.0004272314882414365,-0.7930637083156037,0.6086828046045495,-0.01888888888888889,0.0044444444444444444,0.04111111111111111,-0.1,-0.39,-2.54
2025-01-03 10:48:32.780454,-0.03885418010426927,0.00030041891833197887,-0.02243127923545442,0.9989930430932737,0.023333333333333334,-0.04777777777777778,0.04888888888888889,0.6,-0.47,-2.9
2025-01-03 10:48:32.791520,-0.023438081996423082,0.0004882933749254808,-0.7928053308633839,0.609023911875806,-0.0033333333333333335,-0.005555555555555556,0.02666666666666667,0.79,-0.57,2.01
2025-01-03 10:48:32.804061,-0.023438084746940435,-6.10366790284907e-05,-0.7928054239010659,0.6090239833462803,0.09,-0.07333333333333333,-0.008888888888888889,0.69,0.45,2.09
2025-01-03 10:48:32.817126,-0.023377080814059842,-0.0002441470581102856,-0.7928065344486248,0.6090248364561074,0.03222222222222222,-0.016666666666666666,0.0044444444444444444,-0.01,0.15,1.98
2025-01-03 10:48:32.827769,-0.014636488685601344,-3.8115855952086834e-05,-0.495124968817608,-0.868698473004011,-0.034444444444444444,0.014444444444444444,-0.016666666666666666,-0.62,0.01,-1.61
2025-01-03 10:48:32.837194,-0.02319294772364653,6.103407295696456e-05,-0.7928326077109696,0.6089979799645924,0.014444444444444444,0.06,0.012222222222222223,-0.13,0.18,-2.59
2025-01-03 10:48:32.850611,-0.02288819467822473,0.00018310555742579782,-0.792786028467896,0.6090701191840122,0.014444444444444444,0.06,0.012222222222222223,0.19,-0.19,1.75
2025-01-03 10:48:32.863629,-0.022765934418264487,-0.0004882774137965573,-0.7922301038849142,0.6097974551551756,-0.008888888888888889,-0.04666666666666667,0.07,-0.42,-0.29,0.34
2025-01-03 10:48:32.873860,-0.02282668372036254,-0.00042723739583566255,-0.7922812336203908,0.6097287977711813,-0.02,-0.0011111111111111111,-0.021111111111111112,-0.1,-0.12,-2.45
2025-01-03 10:48:32.883879,-0.02301114621633695,0.00024415009248102864,-0.7923891251471785,0.6095817434020083,-0.13,0.06,-0.03,0.1,0.67,-2.45
2025-01-03 10:48:32.897063,-0.02276542944355571,-0.00018309996871492527,-0.7923345979523867,0.6096618624977962,0.09666666666666666,-0.01,0.014444444444444444,0.09,0.14,1.03
2025-01-03 10:48:32.910608,-0.02258342791868829,-0.00036621775003278307,-0.7921289933209098,0.6099356626796002,0.052222222222222225,0.0011111111111111111,0.07222222222222222,-0.06,0.2,1.77
2025-01-03 10:48:32.922267,-0.022583088365739863,-0.00042724761773021367,-0.7919950125238933,0.6101095981187451,0.07222222222222222,-0.0044444444444444444,-0.011111111111111112,-0.39,-1.11,-2.05
2025-01-03 10:48:32.935321,-0.022521833256221754,-0.00048827822777716543,-0.7920483202330344,0.610042610829096,0.012222222222222223,0.0,-0.015555555555555555,0.77,-0.37,-0.35
2025-01-03 10:48:32.948660,-0.022766101365400835,-0.00024414049721609474,-0.7919917729690114,0.6101071025430207,-0.06444444444444444,-0.016666666666666666,0.02666666666666667,0.3,-0.11,-0.28
2025-01-03 10:48:32.962157,-0.022522323873575174,-0.0010376138369939782,-0.7919435020586393,0.6101779722605176,0.11222222222222222,-0.07555555555555556,0.013333333333333334,0.0,0.27,0.74
2025-01-03 10:48:32.973498,-0.022766351262910416,-0.0005493221484348358,-0.7919394306602215,0.6101748353225614,-0.10666666666666667,0.024444444444444446,0.0022222222222222222,-0.3,0.56,1.46
2025-01-03 10:48:32.984262,-0.022827353593848704,-0.0006713927527602561,-0.7919382697331202,0.61017394084948,0.005555555555555556,-0.025555555555555557,0.006666666666666667,0.29,0.34,-1.6
2025-01-03 10:48:32.997394,-0.02264434075001044,-0.0006713955478439753,-0.7919415666614164,0.6101764810723838,0.024444444444444446,0.034444444444444444,0.0022222222222222222,0.08,0.15,-1.34
2025-01-03 10:48:33.011289,-0.02276525157189596,-0.00048826276829803673,-0.7919622101794156,0.6101453618344341,-0.04,0.0,-0.011111111111111112,0.77,-0.73,4.66
2025-01-03 10:48:33.023134,-0.0220948026578137,-0.00018310609937414668,-0.7920559505261004,0.6100484877481986,0.0011111111111111111,0.014444444444444444,-0.017777777777777778,0.42,-0.51,-0.15
2025-01-03 10:48:33.033900,-0.022399329758300314,6.1033596071662986e-05,-0.7921550434141138,0.6099087255441282,-0.07666666666666666,-0.016666666666666666,-0.042222222222222223,-0.12,-0.39,-3.83
2025-01-03 10:48:33.045694,-0.021911295449496725,0.0004882739933035482,-0.792163519885844,0.6099152518852946,0.006666666666666667,0.13555555555555557,-0.0044444444444444444,-0.01,0.53,2.79
2025-01-03 10:48:33.059139,-0.029108196321209773,0.0006102347237150896,-0.7917795540203287,0.6101126767703465,0.052222222222222225,0.10888888888888888,0.08222222222222222,0.27,0.54,2.62
2025-01-03 10:48:33.072139,-0.02166710029860171,0.0006713749388299122,-0.7917951892218591,0.6104018875670865,-0.006666666666666667,-0.027777777777777776,0.07555555555555556,-0.38,-0.22,-3.47
2025-01-03 10:48:33.082195,-0.02178976719009803,0.0006713933868097433,-0.7920610891481853,0.6100524455603076,-0.05444444444444444,-0.022222222222222223,-0.025555555555555557,-0.07,-0.38,0.44
2025-01-03 10:48:33.092651,-0.02148449569460195,0.00024414199652956765,-0.7921187077401822,0.6099887783291247,-0.021111111111111112,-0.014444444444444444,-0.09111111111111111,0.27,-0.23,0.0
2025-01-03 10:48:33.104441,-0.02148488780602428,-0.00018310983925588873,-0.7918279815555482,0.6103661308529624,0.06555555555555556,-0.051111111111111114,0.09777777777777778,0.26,-0.67,2.51
2025-01-03 10:48:33.117960,-0.02197334169092202,-0.0004272594217679282,-0.7915285973552132,0.6107368248871271,-0.022222222222222223,-0.12111111111111111,0.09444444444444444,0.09,0.04,-1.51
2025-01-03 10:48:33.129513,-0.02166773384591274,0.0,-0.7914521261407057,0.6108469868447738,-0.02666666666666667,0.10222222222222223,0.03222222222222222,0.87,0.51,-0.85
2025-01-03 10:48:33.139274,-0.021728501297744132,-6.103511600489925e-05,-0.7915033843515334,0.6107784058610268,0.006666666666666667,-0.01,-0.023333333333333334,0.77,0.46,0.1
2025-01-03 10:48:33.153010,-0.02154548098861511,0.0001831060707247743,-0.791506508386291,0.6107808165809387,0.016666666666666666,-0.01,-0.011111111111111112,0.0,0.0,1.32
2025-01-03 10:48:33.165342,-0.02191151914215185,0.0,-0.7915002234970061,0.61077596672845,-0.015555555555555555,-0.09,-0.0077777777777777776,-1.02,0.11,-0.6
2025-01-03 10:48:33.175448,-0.022094870070111267,-0.00018310665803959614,-0.791631118257854,0.6105996690093732,0.0033333333333333335,-0.05,-0.04777777777777778,-0.08,-0.75,-0.08
2025-01-03 10:48:33.186129,-0.021911609706771522,0.000122070249062794,-0.7916866002967504,0.6105343506875642,-0.02,0.07444444444444444,-0.01888888888888889,0.01,0.14,0.64
2025-01-03 10:48:33.199479,-0.02233864453902238,6.103454792082618e-05,-0.7916791210810363,0.6105285828520243,-0.044444444444444446,-0.07888888888888888,0.006666666666666667,-0.04,-0.01,-0.43
2025-01-03 10:48:33.213035,-0.021789597739636433,0.0,-0.7916887178734571,0.6105359837243227,0.07555555555555556,0.03666666666666667,0.006666666666666667,0.79,-0.12,0.98
2025-01-03 10:48:33.224483,-0.021973190861401374,-0.00018310992384501143,-0.7917673107058295,0.6104274494579864,0.006666666666666667,-0.05444444444444444,-0.02,0.24,-0.39,-0.19
2025-01-03 10:48:33.235929,-0.02185093344143262,-0.00030518063465688017,-0.7918216746807413,0.6103612693137603,0.03666666666666667,0.0077777777777777776,-0.01888888888888889,-0.14,-0.57,-0.34
2025-01-03 10:48:33.249612,-0.02191169790530156,-0.00024414148083901457,-0.7918728931013438,0.6102926667273267,-0.013333333333333334,0.005555555555555556,-0.011111111111111112,-0.12,-0.01,-0.05
2025-01-03 10:48:33.263399,-0.021361985058445124,-0.0004882739441930314,-0.791614132022952,0.6106476014564098,0.0811111111111111,0.05444444444444444,0.021111111111111112,-0.09,0.32,-0.23
2025-01-03 10:48:33.275683,-0.021789266723983455,-0.00018310308171414668,-0.7915546222502562,0.6107098118772506,-0.11222222222222222,-0.027777777777777776,0.02,-0.28,0.2,-2.8
2025-01-03 10:48:33.287643,-0.02148456252571078,0.00024414275597398614,-0.7916939219346436,0.6105399970019458,-0.01888888888888889,0.10888888888888888,-0.04111111111111111,-0.05,0.37,-1.95
2025-01-03 10:48:33.297341,-0.022216232404529475,0.00024413442202779643,-0.7919720650581716,0.6101529542529702,-0.09777777777777778,-0.12666666666666668,-0.09666666666666666,-0.02,-0.04,0.36
2025-01-03 10:48:33.311353,-0.02197287558247885,0.00024414306202754277,-0.7922442362793762,0.609808333179295,0.025555555555555557,0.044444444444444446,-0.09111111111111111,0.04,-0.17,1.49
2025-01-03 10:48:33.324230,-0.02221665199800387,0.0,-0.7922921966650777,0.609737234780381,0.043333333333333335,0.01,-0.042222222222222223,0.01,-0.84,-2.88
2025-01-03 10:48:33.336219,-0.021789529595283942,0.0001831052907166718,-0.7921134876403222,0.6099847584741392,0.021111111111111112,0.09555555555555556,0.06444444444444444,0.13,-0.73,0.07
2025-01-03 10:48:33.349278,-0.021729006492285787,0.0,-0.7920100793367988,0.6101212047665414,0.03222222222222222,-0.012222222222222223,0.035555555555555556,-0.08,-0.18,0.0
2025-01-03 10:48:33.362945,-0.021667998613961452,6.103661581397592e-05,-0.7920111268021515,0.6101220116765033,0.008888888888888889,0.014444444444444444,-0.0022222222222222222,-0.55,0.76,0.14
2025-01-03 10:48:33.375620,-0.021728282102357558,0.0,-0.792166779231738,0.6099177613731996,0.008888888888888889,-0.05,-0.027777777777777776,-0.31,0.26,-1.12
2025-01-03 10:48:33.388229,-0.021728282102357558,0.0,-0.792166779231738,0.6099177613731996,-0.008888888888888889,0.0,0.0,-0.48,0.21,-1.12
2025-01-03 10:48:33.402838,-0.021728523071946445,0.0002441407086735556,-0.7921145292913511,0.6099855606208786,-0.04,0.021111111111111112,0.017777777777777778,-0.14,-0.07,0.4
2025-01-03 10:48:33.415585,-0.021850619392884692,0.0001831057491023857,-0.792298576366023,0.6097421445109443,-0.03666666666666667,0.0077777777777777776,-0.056666666666666664,0.45,-0.37,-0.39
2025-01-03 10:48:33.426883,-0.021789691007928318,0.0006103554904181601,-0.792485568758939,0.6095009927315747,-0.06888888888888889,0.06222222222222222,-0.07111111111111111,0.8,-0.53,0.01
2025-01-03 10:48:33.436873,-0.022033797210577116,0.0004882835946942297,-0.7926673805367451,0.6092558552797251,0.0,-0.05,-0.058888888888888886,0.24,-0.09,0.17
2025-01-03 10:48:33.450107,-0.021850290706496706,0.00030517165791196516,-0.792774932923703,0.6091226291922824,0.044444444444444446,0.0044444444444444444,-0.03111111111111111,-0.22,0.4,0.55
2025-01-03 10:48:33.464400,-0.021789284418896625,0.0004272408709587573,-0.7927759532690427,0.609123413166914,-0.01,0.025555555555555557,0.0077777777777777776,-0.7,0.15,-1.0
2025-01-03 10:48:33.475824,-0.021850456390908882,0.0003051739719400682,-0.7925368051283571,0.6094324219643162,0.0,0.02666666666666667,0.03777777777777778,0.25,0.1,-1.08
2025-01-03 10:48:33.486038,-0.02148465717083311,0.0004272517051017948,-0.7924908770059577,0.6095050753066461,0.03,0.06888888888888889,0.013333333333333334,0.33,-0.23,0.52
2025-01-03 10:48:33.498698,-0.02136264291387469,0.00012207224522214107,-0.7924930159821398,0.6095067203941504,0.06111111111111111,-0.017777777777777778,-0.0044444444444444444,0.72,-0.24,1.17
2025-01-03 10:48:33.511757,-0.021606432474311606,0.00018310535995179328,-0.7925410329913452,0.6094356730395519,-0.042222222222222223,-0.02666666666666667,-0.01,-0.56,-0.06,0.0
2025-01-03 10:48:33.524924,-0.021850457245591377,0.00012206959355078982,-0.7925368361285029,0.6094324458023181,0.04777777777777778,0.06111111111111111,-0.0033333333333333335,0.24,0.16,0.03
2025-01-03 10:48:33.536515,-0.022155726021737657,0.0006103505791112303,-0.7924791919180214,0.6094960883004745,-0.11444444444444445,0.01,0.017777777777777778,-0.57,0.55,-0.13
2025-01-03 10:48:33.549094,-0.021484657691084597,0.0003662157560980329,-0.7924908961961431,0.6095050900658261,0.12,0.08555555555555555,-0.0022222222222222222,0.68,-0.05,2.03
2025-01-03 10:48:33.562788,-0.021789450168754422,0.00036620924653368777,-0.7925378443733226,0.6094332211064787,-0.028888888888888888,-0.052222222222222225,-0.025555555555555557,0.67,-0.52,-2.04
2025-01-03 10:48:33.575765,-0.021850848537910583,0.0009765742363311992,-0.7928562081213923,0.6090161081320441,-0.10888888888888888,0.044444444444444446,-0.04555555555555556,0.08,-0.44,-0.76
2025-01-03 10:48:33.586546,-0.021789356903555147,0.000732415358102694,-0.7929616943725167,0.6088813010360397,0.04111111111111111,-0.016666666666666666,-0.028888888888888888,-0.32,0.2,0.83
2025-01-03 10:48:33.599177,-0.021606581583835095,0.0007324264943672914,-0.7929127156937902,0.6089515945252054,0.017777777777777778,0.021111111111111112,0.02,-0.89,0.14,1.09
2025-01-03 10:48:33.612895,-0.021484252946851107,0.0005493132855728976,-0.7927811407007075,0.6091273988908353,0.04666666666666667,-0.0011111111111111111,0.04,-0.79,0.47,-1.06
2025-01-03 10:48:33.626157,-0.02160699001082932,0.0006714036444043009,-0.7926225205667501,0.6093293256443759,-0.034444444444444444,-0.043333333333333335,0.03111111111111111,0.51,0.26,-1.31
2025-01-03 10:48:33.636304,-0.02142396720334857,0.0004272586051949857,-0.7926257495802977,0.6093318079516489,-0.005555555555555556,0.043333333333333335,0.02,0.86,-0.6,2.64
2025-01-03 10:48:33.649162,-0.02178977311586236,0.00036621467421617406,-0.7926716623409088,0.6092591463376417,-0.044444444444444446,-0.06111111111111111,-0.016666666666666666,0.36,0.07,1.33
2025-01-03 10:48:33.663199,-0.021667028060464492,0.0006103388186046336,-0.792830125367419,0.6090571070855638,-0.016666666666666666,0.05333333333333334,-0.056666666666666664,0.06,-0.06,1.07
2025-01-03 10:48:33.676112,-0.02209413465916703,0.0006713687327371198,-0.7930085404048542,0.6088093735502518,0.011111111111111112,-0.014444444444444444,-0.06222222222222222,-0.62,0.08,-1.67
2025-01-03 10:48:33.687642,-0.02160657128089154,0.0012207102418582791,-0.7929123375990452,0.6089513041510025,-0.025555555555555557,0.14888888888888888,0.03222222222222222,-0.11,-0.1,2.12
2025-01-03 10:48:33.701425,-0.021362552387005795,0.0006713945035916108,-0.7929169087416923,0.608954814757591,0.12222222222222222,-0.02666666666666667,0.0,0.04,-0.78,1.63
2025-01-03 10:48:33.717724,-0.021912063607932127,0.0014648733331208107,-0.7934120190515591,0.6082886515784166,-0.08888888888888889,-0.07111111111111111,-0.04888888888888889,0.24,0.15,0.41
2025-01-03 10:48:33.728255,-0.021911651050975298,0.0009155285954446503,-0.7937022570108154,0.6079109873752477,0.08666666666666667,-0.06555555555555556,-0.10888888888888888,-0.22,0.23,-0.64
2025-01-03 10:48:33.737451,-0.021545618120454135,0.00042725021768605934,-0.7937088329699309,0.6079160240218787,0.12555555555555556,0.0,0.0044444444444444444,-0.13,0.65,0.82
2025-01-03 10:48:33.750334,-0.021545478299781692,0.0006713888422028289,-0.7933374700865792,0.6084003617343453,-0.035555555555555556,0.021111111111111112,0.13111111111111112,-0.12,-0.57,-0.35
2025-01-03 10:48:33.765144,-0.021850122665409713,-6.1033862193881886e-05,-0.7930129714851073,0.6088127753839718,0.07666666666666666,-0.13777777777777778,0.10666666666666667,0.21,-0.53,0.31
2025-01-03 10:48:33.776741,-0.021545575339213096,0.0006713918660944591,-0.7929137938575561,0.6089524225476743,0.08333333333333333,0.04777777777777778,0.043333333333333335,1.21,0.09,0.3
2025-01-03 10:48:33.787597,-0.02215596546326659,0.00030517858764830016,-0.7930370778628728,0.6087702466408292,-0.15777777777777777,0.09666666666666666,-0.005555555555555556,-0.95,0.52,-1.01
2025-01-03 10:48:33.798284,-0.02178968236290573,0.0,-0.7930956095899078,0.608707289090361,0.10222222222222223,0.028888888888888888,-0.016666666666666666,-0.22,0.46,-0.56
2025-01-03 10:48:33.810728,-0.02172811176104061,0.00030517010900337936,-0.7930150452561815,0.6088143674617418,-0.04555555555555556,0.03777777777777778,0.027777777777777776,-0.67,-0.01,0.38
2025-01-03 10:48:33.823836,-0.02221664479767868,0.00030517369227580607,-0.7929022872709993,0.6089435855671435,-0.056666666666666664,-0.07666666666666666,0.042222222222222223,-1.05,-0.11,1.24
2025-01-03 10:48:33.835324,-0.021850366283517147,0.00042724179883972074,-0.7929607786465217,0.6088805978892934,0.02666666666666667,0.08,-0.01888888888888889,0.36,0.07,-0.6
2025-01-03 10:48:33.845981,-0.021239871116673782,0.0015258528101058752,-0.7932603589178424,0.608510100670223,-0.10444444444444445,0.23777777777777778,-0.09333333333333334,-6.03,-0.61,-6.35
2025-01-03 10:48:33.858146,-0.02136233759423121,0.0012817402556538728,-0.7945568880048627,0.6068124581767049,0.10555555555555556,0.09111111111111111,-0.24555555555555555,-3.87,-1.03,-2.37
2025-01-03 10:48:33.872901,-0.019348568576858495,0.0014648758543993814,-0.7948782604934643,0.6064586037213439,0.22777777777777777,0.35777777777777775,-0.10333333333333333,-11.18,1.97,2.18
2025-01-03 10:48:33.884567,-0.019287854898743958,0.0019532004960753375,-0.7951967519646718,0.6060414914228758,-0.07777777777777778,0.07,-0.10333333333333333,-5.63,-0.84,3.01
2025-01-03 10:48:33.899780,-0.018615988199141623,0.002014188887120241,-0.7951773582243182,0.6060877469425453,0.051111111111111114,0.09333333333333334,-0.012222222222222223,-8.17,0.09,-0.74
2025-01-03 10:48:33.914759,-0.019287409248308327,0.001953155366917299,-0.7953004509666377,0.6059054164808758,-0.07,-0.11888888888888889,-0.04666666666666667,-6.79,0.87,-0.49
2025-01-03 10:48:33.927585,-0.02111804176903934,0.00042724361960484215,-0.7954055500986147,0.6057093829940647,0.12333333333333334,-0.16666666666666666,-0.042222222222222223,-2.96,0.55,2.39
2025-01-03 10:48:33.938026,-0.02136305453714897,0.0007324475841308218,-0.7951939271713623,0.6059783012708999,-0.07555555555555556,-0.011111111111111112,0.06444444444444444,-0.35,0.8,0.82
2025-01-03 10:48:33.951189,-0.021728805494947333,0.000671395675405676,-0.7950545516213032,0.6061482229503425,-0.042222222222222223,-0.06111111111111111,0.04,-0.2,0.12,-1.49
2025-01-03 10:48:33.965300,-0.021911828796985097,0.0004272501436738041,-0.7950514816421389,0.606145882403507,0.022222222222222223,-0.056666666666666664,0.0033333333333333335,0.1,0.0,-1.51
2025-01-03 10:48:33.977494,-0.021850873813496086,0.0004272517226102587,-0.7952375276984373,0.6059039786217197,-0.0077777777777777776,0.02666666666666667,-0.025555555555555557,0.74,-1.0,1.12
2025-01-03 10:48:33.990315,-0.02185087479033207,0.00030517981550743116,-0.7952375632492641,0.6059040057084538,0.016666666666666666,-0.014444444444444444,-0.01,0.38,-0.81,0.46
2025-01-03 10:48:34.003674,-0.021728055507601134,0.00048827091028317155,-0.7952102112599303,0.6059441996614159,-0.015555555555555555,0.04666666666666667,0.012222222222222223,0.13,-0.58,-0.27
2025-01-03 10:48:34.017102,-0.02160624256033583,0.00048827666803018824,-0.7949754501366503,0.6062565179429825,-0.0044444444444444444,0.013333333333333334,0.035555555555555556,-0.55,0.21,0.15
2025-01-03 10:48:34.029422,-0.021545183738157284,0.0003662070890338349,-0.7947914522330997,0.6064999739548695,0.028888888888888888,0.0022222222222222222,0.06222222222222222,-0.39,0.25,0.66
2025-01-03 10:48:34.038890,-0.021545129081048508,0.00018310308000891084,-0.7946063328786701,0.6067425727895276,0.035555555555555556,-0.023333333333333334,0.06555555555555556,0.08,0.71,0.98
2025-01-03 10:48:34.051266,-0.021727839401328684,0.0001220665134906106,-0.7944699030536391,0.6069147050753159,-0.013333333333333334,-0.03888888888888889,0.03777777777777778,1.33,0.55,-0.48
2025-01-03 10:48:34.066335,-0.021788843722871966,0.00012206635138863846,-0.7944688480129534,0.6069138991043104,-0.012222222222222223,-0.015555555555555555,0.006666666666666667,1.64,0.18,-0.87
2025-01-03 10:48:34.077984,-0.021850097962190982,6.10337931904776e-05,-0.7944158521672564,0.6069810732792997,-0.011111111111111112,-0.01,0.006666666666666667,1.43,-0.14,-0.1
2025-01-03 10:48:34.089362,-0.021728644247792292,0.00012207103509995668,-0.7944993319480681,0.6068761509994347,-0.0022222222222222222,0.023333333333333334,-0.03333333333333333,0.95,-0.39,0.84
2025-01-03 10:48:34.101179,-0.02166664347517077,0.0001830983955648234,-0.7947080695498552,0.6066049845062599,0.005555555555555556,0.02,-0.06333333333333334,0.62,-0.16,0.44
2025-01-03 10:48:34.114890,-0.02172795222904251,0.00024413429470834282,-0.7948402299966871,0.6064295880555236,-0.017777777777777778,0.0022222222222222222,-0.044444444444444446,0.3,0.24,-0.34
2025-01-03 10:48:34.129876,-0.021606190605509418,0.0002441377469549087,-0.7947904352117052,0.6064991978727319,-0.0077777777777777776,0.02,-0.0011111111111111111,-0.22,0.66,-0.02
2025-01-03 10:48:34.139885,-0.021606190605509418,0.0002441377469549087,-0.7947904352117052,0.6064991978727319,0.0044444444444444444,0.006666666666666667,0.0,-0.22,0.44,0.37
2025-01-03 10:48:34.153315,-0.021484478846857974,0.00030517725634741444,-0.7949257173337451,0.606326172911043,-0.005555555555555556,0.023333333333333334,-0.04555555555555556,-0.24,0.39,0.6
2025-01-03 10:48:34.167283,-0.02154553733395287,0.00042724861568745065,-0.7951096737943456,0.6060826791109122,-0.021111111111111112,0.0077777777777777776,-0.06666666666666667,-0.65,-0.11,-0.28
2025-01-03 10:48:34.179043,-0.021606843991896624,0.0004882902597038785,-0.7952417242102291,0.6059071760100502,-0.0033333333333333335,0.0011111111111111111,0.006666666666666667,-0.28,-0.55,-0.31
2025-01-03 10:48:34.189387,-0.02160654439671762,0.00042724805304243874,-0.7951086267119786,0.6060818809587738,0.011111111111111112,-0.0077777777777777776,0.03888888888888889,0.04,-0.77,0.36
2025-01-03 10:48:34.201791,-0.021607043621610426,0.0003051842319436501,-0.7950049242132085,0.6062179583328665,0.012222222222222223,-0.013333333333333334,0.04,0.26,-0.56,0.39
2025-01-03 10:48:34.215405,-0.02166725010423709,0.0003051725366793956,-0.7949744580498256,0.6062557613672873,-0.01,-0.014444444444444444,0.014444444444444444,0.44,-0.44,0.2
2025-01-03 10:48:34.228503,-0.021727754012799815,0.00042723111822920987,-0.7950771110245596,0.606118890733469,-0.008888888888888889,0.015555555555555555,-0.012222222222222223,0.09,-1.06,0.39
2025-01-03 10:48:34.238970,-0.021851374662630835,0.0007324483127138827,-0.7951336808103125,0.6060399414113451,-0.07222222222222222,0.013333333333333334,-0.017777777777777778,0.05,-1.61,-0.46
2025-01-03 10:48:34.251626,-0.021667547383995792,0.0007324241369238015,-0.7951074359755301,0.6060809733044458,0.023333333333333334,0.03666666666666667,0.015555555555555555,-0.11,-2.55,0.0
2025-01-03 10:48:34.266370,-0.021789759072620495,0.0006713931366913878,-0.7948684381029039,0.6063900739117216,-0.0033333333333333335,-0.027777777777777776,0.07888888888888888,0.17,-2.97,0.43
2025-01-03 10:48:34.279073,-0.021668065291835327,0.0008545152509456186,-0.7942108889503136,0.60725515940414,0.021111111111111112,0.034444444444444444,0.09555555555555556,0.1,-3.96,0.22
2025-01-03 10:48:34.291879,-0.021728269030168737,0.0007934480263825663,-0.794180439945381,0.6072929125005027,0.0,-0.01,0.014444444444444444,1.95,-3.39,0.03
2025-01-03 10:48:34.306080,-0.020813161456545843,0.0004882853127635388,-0.7941960612098959,0.6073048577496514,0.16555555555555557,0.11222222222222222,0.0,0.17,-2.0,-0.59
2025-01-03 10:48:34.318572,-0.021729072143450538,0.0009155507925611182,-0.794209794187018,0.6072543223460377,-0.10666666666666667,-0.04888888888888889,-0.014444444444444444,-0.32,-1.11,0.23
2025-01-03 10:48:34.330722,-0.02172851570594503,0.0008544921906832315,-0.7941284209271089,0.6073608421063454,0.011111111111111112,-0.0022222222222222222,0.023333333333333334,-0.04,-0.85,0.49
2025-01-03 10:48:34.340925,-0.021789525820779233,0.0006103508633271494,-0.7941275082749542,0.6073601440968464,0.027777777777777776,-0.04,0.0,0.44,-1.08,-0.69
2025-01-03 10:48:34.353936,-0.021789278818208434,0.00048827515559010496,-0.7941795405673058,0.6072922247651931,0.023333333333333334,-0.016666666666666666,-0.013333333333333334,0.68,-1.12,-1.2
2025-01-03 10:48:34.370093,-0.021972857573966616,0.0004882857238659249,-0.79425776558341,0.6071832976272775,-0.021111111111111112,-0.03333333333333333,-0.021111111111111112,0.7,-1.37,1.59
2025-01-03 10:48:34.379715,-0.02166806831899312,0.0006714049338279558,-0.7942109999063056,0.607255244241303,-0.006666666666666667,0.04666666666666667,0.012222222222222223,-0.12,-1.19,0.62
2025-01-03 10:48:34.390230,-0.02172852104831894,0.0004882813718723357,-0.79412861617887,0.6073609914377015,-0.006666666666666667,0.18888888888888888,0.012222222222222223,-0.35,-1.43,-1.73
2025-01-03 10:48:34.403705,-0.021606755206749203,0.00036621618994490176,-0.794078771863862,0.6074305870552771,0.034444444444444444,0.0,0.02666666666666667,-0.6,-1.12,-1.28
2025-01-03 10:48:34.416108,-0.02191122639633354,0.00042723839770009695,-0.793992045097223,0.6075330015295378,-0.04777777777777778,-0.028888888888888888,0.024444444444444446,-0.64,-0.85,-0.22
2025-01-03 10:48:34.429299,-0.02136266161627236,-6.103617604649246e-05,-0.7938975418367274,0.607676168718879,0.05444444444444444,0.02,0.011111111111111112,-0.15,-1.01,-0.37
2025-01-03 10:48:34.439963,-0.02160669286461391,0.0001220717110995136,-0.7938933731356868,0.6076729778533787,-0.05,-0.021111111111111112,0.0,-0.22,-0.55,-1.71
2025-01-03 10:48:34.452416,-0.021484740731710146,0.00018310858578162055,-0.7940809003396277,0.6074322152328959,0.0044444444444444444,0.03888888888888889,-0.057777777777777775,0.36,-0.9,1.41
2025-01-03 10:48:34.466624,-0.021728275707909302,-0.00012206896465117586,-0.7941806840205501,0.6072930991395998,0.02,-0.09,-0.043333333333333335,0.08,-0.18,1.05
2025-01-03 10:48:34.479458,-0.021728333420032792,0.0005493117999446492,-0.794365897364401,0.6070505735832756,-0.08,0.034444444444444444,-0.025555555555555557,-0.17,-0.13,-1.68
2025-01-03 10:48:34.490548,-0.021972106167334672,0.00024413451297038524,-0.7944137052056336,0.6069794328726204,-0.028888888888888888,0.051111111111111114,-0.024444444444444446,-0.34,-0.02,0.11
2025-01-03 10:48:34.503313,-0.021789091765820667,0.0003662032229549692,-0.7944168583303132,0.6069818420478614,0.0022222222222222222,0.042222222222222223,0.0,0.22,-0.28,0.53
2025-01-03 10:48:34.515705,-0.02185115547329811,0.0004272572299248233,-0.7943932639245108,0.6070104502289098,-0.022222222222222223,-0.0033333333333333335,0.013333333333333334,-0.28,-0.17,1.29
2025-01-03 10:48:34.529768,-0.021972668896534747,0.00018310557413778956,-0.7944950861838689,0.6068729078840138,0.034444444444444444,-0.021111111111111112,-0.01,0.14,-0.48,-1.63
2025-01-03 10:48:34.541668,-0.021972417402395965,0.00012206898556886647,-0.7945470270677518,0.6068049272628352,-0.0033333333333333335,-0.005555555555555556,-0.02,-0.07,-0.52,-0.97
2025-01-03 10:48:34.555314,-0.021972416542951553,-0.0003051724519854382,-0.794546995989287,0.6068049035278453,0.07222222222222222,-0.057777777777777775,-0.0011111111111111111,0.12,0.19,-1.0
2025-01-03 10:48:34.568974,-0.02185146470108878,-0.00042726327627827217,-0.7945265810448956,0.6068359275369403,0.03,0.0033333333333333335,0.01,0.1,0.23,1.94
2025-01-03 10:48:34.580506,-0.021545678118965402,-0.0004272514074582374,-0.7946876178723217,0.606635962675346,0.06666666666666667,-0.025555555555555557,-0.04555555555555556,0.49,0.22,3.58
2025-01-03 10:48:34.592118,-0.02172875219070897,-0.000671394028364603,-0.7948694937629295,0.6063908792547573,0.022222222222222223,-0.06666666666666667,-0.05555555555555555,-0.54,0.16,-0.13
2025-01-03 10:48:34.606138,-0.02191157219925112,-0.0007324202406434915,-0.7951032062385636,0.6060777491324892,-0.014444444444444444,-0.034444444444444444,-0.0811111111111111,-0.13,0.26,-1.62
2025-01-03 10:48:34.618571,-0.022033634564756398,-0.0007324199855320686,-0.7952860342902378,0.6058333980326094,-0.017777777777777778,-0.024444444444444446,-0.06,0.28,1.27,-3.23
2025-01-03 10:48:34.631000,-0.022156109949061545,0.0,-0.794995405197043,0.6062106997633038,-0.06555555555555556,0.03222222222222222,0.016666666666666666,0.24,-0.65,2.62
2025-01-03 10:48:34.641232,-0.02227755248000958,-0.0003662063421371438,-0.7949118999990268,0.6063156337983977,0.04888888888888889,-0.06888888888888889,0.034444444444444444,-0.32,-0.64,1.55
2025-01-03 10:48:34.652969,-0.02203409304395273,-0.0006103626881981366,-0.794997401378073,0.6062122219183893,0.07111111111111111,0.016666666666666666,-0.034444444444444444,-0.37,-0.72,1.55
2025-01-03 10:48:34.668571,-0.02239966682073764,-0.0003662070869875364,-0.7952797239079331,0.605828590906381,-0.09111111111111111,-0.024444444444444446,-0.09444444444444444,0.38,0.13,-2.7
2025-01-03 10:48:34.680317,-0.021728407240417857,-6.1034851798926565e-05,-0.7955282583472089,0.6055267646971504,-0.05555555555555555,0.09444444444444444,-0.07777777777777778,0.23,0.61,-0.24
2025-01-03 10:48:34.691059,-0.021667100903952283,-0.00036620452232032026,-0.7953962224797356,0.6057022799178097,0.09222222222222222,0.044444444444444446,-0.0022222222222222222,0.13,0.92,0.92
2025-01-03 10:48:34.702605,-0.02148408495709922,0.0,-0.795399418070787,0.6057047133927632,-0.03222222222222222,0.07333333333333333,0.008888888888888889,-0.3,0.49,0.28
2025-01-03 10:48:34.715914,-0.02160669157672526,6.103585191165327e-05,-0.795663365520312,0.6053535792597772,-0.03333333333333333,-0.005555555555555556,-0.09888888888888889,-0.18,0.22,-1.26
2025-01-03 10:48:34.729421,-0.02166702668835044,6.103387799535336e-05,-0.7961869384493846,0.6046626292999657,-0.0033333333333333335,-0.012222222222222223,-0.17222222222222222,-0.06,0.0,0.89
2025-01-03 10:48:34.739773,-0.021485129374635998,6.103729935976135e-05,-0.7965367566448857,0.6042082263622777,0.016666666666666666,0.03666666666666667,-0.11666666666666667,0.52,-0.24,1.71
2025-01-03 10:48:34.750829,-0.021911636276415583,6.103519854154758e-05,-0.7964483057686544,0.6043095007598627,0.0044444444444444444,-0.07555555555555556,-0.021111111111111112,-0.02,0.08,1.81
2025-01-03 10:48:34.766071,-0.0217893307262014,0.00012206907969860729,-0.7963176414138646,0.6044860826675033,0.0,0.03222222222222222,0.03888888888888889,0.15,-0.23,-1.23
2025-01-03 10:48:34.777672,-0.021911634317360186,-0.00042724635159198133,-0.7964482345605378,0.6043094467303154,0.07444444444444444,-0.09555555555555556,-0.04666666666666667,0.36,0.38,-1.57
2025-01-03 10:48:34.788515,-0.021788856100468823,-0.00024413284146183553,-0.7966054616899694,0.604106716197312,-0.011111111111111112,0.03888888888888889,-0.052222222222222225,0.27,0.55,0.71
2025-01-03 10:48:34.799349,-0.02179017185785192,0.00012207379192073905,-0.7965314922828223,0.6042042331116979,-0.05555555555555555,0.05444444444444444,0.027777777777777776,-0.17,0.22,3.61
2025-01-03 10:48:34.810978,-0.02203386616068737,-0.00024414256133725617,-0.7962099281611266,0.6046190531517148,0.05444444444444444,-0.06888888888888889,0.07222222222222222,-0.32,-0.09,-2.8
2025-01-03 10:48:34.823108,-0.0220341639258887,0.00012207293033733352,-0.7963427610555952,0.6044441145653069,-0.07333333333333333,0.04777777777777778,-0.03333333333333333,0.47,-0.11,-1.78
2025-01-03 10:48:34.833607,-0.021728617171250048,-0.00018310632447682623,-0.7964514760327018,0.6043119062150188,0.09444444444444444,0.013333333333333334,-0.04111111111111111,0.65,0.18,-1.39
2025-01-03 10:48:34.844513,-0.021484585096357877,-0.0006103575311465306,-0.7964555423931078,0.6043149915881799,0.10666666666666667,-0.014444444444444444,0.006666666666666667,0.04,0.45,2.59
2025-01-03 10:48:34.857194,-0.021606311136451256,-0.000427243440551296,-0.7963207384103942,0.6044884336028623,-0.05555555555555555,0.0011111111111111111,0.042222222222222223,-0.13,0.29,1.82
2025-01-03 10:48:34.872212,-0.021606350294349944,-6.1034887837146736e-05,-0.7965052862747649,0.6042453895877526,-0.04111111111111111,0.03888888888888889,0.0,-0.24,0.11,-2.26
2025-01-03 10:48:34.882907,-0.02166659311336653,6.10326566573705e-05,-0.7966592673486572,0.6040402029379959,-0.023333333333333334,-0.008888888888888889,-0.06111111111111111,-0.27,-0.14,-0.38
2025-01-03 10:48:34.896066,-0.02166739188166716,6.103490670892158e-05,-0.7966886372715534,0.604001436791488,-0.008888888888888889,-0.0044444444444444444,-0.015555555555555555,-0.36,-0.03,0.96
2025-01-03 10:48:34.909416,-0.02154588536851513,-6.10365024603828e-05,-0.7965873936104559,0.604139301352869,0.03,0.0,0.03777777777777778,0.01,-0.03,2.02
2025-01-03 10:48:34.921925,-0.02178962367443289,0.00018310608129775538,-0.7964504182848033,0.6043111036430253,-0.027777777777777776,0.0011111111111111111,0.04777777777777778,0.17,0.08,-0.17
2025-01-03 10:48:34.933058,-0.022156214446119423,0.0002441456137313435,-0.7965250647985082,0.6041993575816423,-0.05444444444444444,-0.058888888888888886,-0.02666666666666667,-0.22,0.06,-1.64
2025-01-03 10:48:34.945707,-0.022155953453863318,0.0003662141066754267,-0.796576717703499,0.6041312046455622,-0.015555555555555555,0.013333333333333334,-0.012222222222222223,0.0,-0.04,1.21
2025-01-03 10:48:34.958880,-0.021607145732738062,0.0003662228090294587,-0.7965346096390727,0.6042065977637686,0.07,0.09777777777777778,0.013333333333333334,-0.45,-0.52,1.08
2025-01-03 10:48:34.974450,-0.02178936826739699,-0.00012206929001342851,-0.7965021173376211,0.6042429855664712,-0.0033333333333333335,-0.07666666666666666,0.015555555555555555,-0.18,-0.48,-1.61
2025-01-03 10:48:34.983438,-0.02154454822448123,-0.00030516357258472,-0.7964769244461191,0.6042849064322625,0.07111111111111111,0.016666666666666666,0.008888888888888889,0.17,0.3,-0.67
2025-01-03 10:48:34.993471,-0.02160685385250863,-0.0005493267928603888,-0.7964017770269282,0.6043815447670634,0.03,-0.03222222222222222,0.028888888888888888,0.18,0.29,1.81
2025-01-03 10:48:35.006910,-0.0214842952050174,-0.0006713842251567937,-0.796322725965517,0.6044899423593532,0.027777777777777776,-0.006666666666666667,0.027777777777777776,0.18,0.8,1.84
2025-01-03 10:48:35.019806,-0.021484550520076414,-0.0003051782744329036,-0.7962711536503321,0.604558161651582,-0.051111111111111114,0.04,0.014444444444444444,-0.07,-0.22,-1.36
2025-01-03 10:48:35.032305,-0.02160606005607377,0.0,-0.796372518676979,0.6044203749584705,-0.051111111111111114,0.03111111111111111,-0.006666666666666667,-0.4,-0.32,-1.02
2025-01-03 10:48:35.042341,-0.021484840942016987,6.103647994891189e-05,-0.7964039903734024,0.6043832244541255,-0.01,-0.011111111111111112,-0.03111111111111111,-0.36,-0.44,0.29
2025-01-03 10:48:35.056083,-0.021423832516516656,-6.103655987611584e-05,-0.7964050332635594,0.6043840158932989,0.02666666666666667,-0.008888888888888889,-0.005555555555555556,0.1,-0.67,0.63
2025-01-03 10:48:35.070247,-0.021484840821955876,-0.00012207295921565838,-0.7964039859229554,0.6043832210767247,0.006666666666666667,-0.017777777777777778,0.006666666666666667,0.12,-0.26,0.79
2025-01-03 10:48:35.082633,-0.021789330847956315,-6.1034540190353825e-05,-0.7963176458635464,0.6044860860452643,-0.028888888888888888,-0.015555555555555555,0.016666666666666666,-0.38,0.31,-0.34
2025-01-03 10:48:35.095193,-0.021789330847956315,-6.1034540190353825e-05,-0.7963176458635464,0.6044860860452643,0.0044444444444444444,0.0011111111111111111,0.0,-0.2,-0.06,0.02
2025-01-03 10:48:35.109029,-0.021850592083185665,0.0,-0.7962648723945257,0.604553392692609,-0.014444444444444444,-0.0022222222222222222,0.015555555555555555,-0.21,0.35,0.09
2025-01-03 10:48:35.121933,-0.021911341158805456,0.00018310312946076982,-0.796315510024888,0.6044844647264881,0.0,0.01888888888888889,0.0033333333333333335,0.18,-0.14,-1.23
2025-01-03 10:48:35.134381,-0.021850886308866252,-0.00012207199055232543,-0.7963976663633711,0.6043784252245632,0.04888888888888889,-0.03111111111111111,-0.025555555555555557,0.69,0.02,0.87
2025-01-03 10:48:35.144764,-0.021728872277576354,0.0,-0.7963997906680232,0.6043800373386546,0.0,0.03666666666666667,0.0,0.35,-0.25,1.72
2025-01-03 10:48:35.157682,-0.02166786336309463,0.00036621740895371205,-0.7964007920046724,0.6043807972432761,-0.052222222222222225,0.04777777777777778,0.006666666666666667,-0.17,-0.24,0.02
2025-01-03 10:48:35.171798,-0.021851179650962123,0.00012207362933498394,-0.7965304314107702,0.6042034283935029,0.022222222222222223,-0.058888888888888886,-0.04,-0.07,-0.28,-0.12
2025-01-03 10:48:35.183502,-0.02172919648563506,0.0004882965502389902,-0.7967168587836922,0.6039617955768509,-0.03333333333333333,0.04666666666666667,-0.014444444444444444,-0.33,-0.06,0.2
2025-01-03 10:48:35.194084,-0.021912221731011837,0.000305184146671474,-0.7967137333005502,0.6039594262628472,0.016666666666666666,-0.05555555555555555,0.0022222222222222222,-0.08,-0.11,0.19
2025-01-03 10:48:35.207567,-0.021544584619433652,6.103281761879221e-05,-0.7966613683780948,0.6040417959731865,0.0811111111111111,0.023333333333333334,0.015555555555555555,0.0,0.04,0.25
2025-01-03 10:48:35.221597,-0.02142386843275679,-0.0001220733244031726,-0.7965894783929027,0.6041408824713012,0.03777777777777778,-0.0022222222222222222,0.021111111111111112,0.16,-0.3,-0.56
2025-01-03 10:48:35.233678,-0.02191193001823023,6.10360167638725e-05,-0.7965810547853002,0.6041344939288101,0.01888888888888889,0.07666666666666666,0.0,0.57,-0.38,1.84
2025-01-03 10:48:35.247012,-0.021789916106833215,6.103617957096139e-05,-0.7965831795806171,0.6041361053933758,0.015555555555555555,0.016666666666666666,0.0044444444444444444,0.0,-0.21,0.12
2025-01-03 10:48:35.259545,-0.022033130356874122,0.00012206720419320844,-0.7965495409627816,0.6041716271542852,-0.051111111111111114,-0.034444444444444444,0.01,-0.12,0.0,-0.26
2025-01-03 10:48:35.273031,-0.02209468911187714,0.00018310515838572216,-0.7966295090834818,0.6040639175144974,-0.016666666666666666,0.02666666666666667,-0.0033333333333333335,0.33,0.14,0.36
2025-01-03 10:48:35.284537,-0.021972419121285097,0.00030517248779562636,-0.7966832966392622,0.6039973878451037,0.005555555555555556,0.035555555555555556,-0.01,0.43,-0.06,2.18
2025-01-03 10:48:35.294822,-0.021850409220730543,0.00018310398788321682,-0.7966854512798764,0.6039990213641045,0.04111111111111111,-0.0044444444444444444,-0.0011111111111111111,0.02,0.04,1.47
2025-01-03 10:48:35.307014,-0.02209442955548622,0.00012206867157727191,-0.7966811850490652,0.6039957869643414,-0.024444444444444446,-0.04888888888888889,-0.005555555555555556,0.33,-0.45,-0.45
2025-01-03 10:48:35.320332,-0.021850698025853765,0.0004882837547676819,-0.7968180523115108,0.6038238982395846,-0.03666666666666667,0.08777777777777777,-0.04111111111111111,0.33,-0.29,-0.05
2025-01-03 10:48:35.333617,-0.02209530793582312,0.00036622057352193014,-0.797079078270481,0.6034704684018872,0.01888888888888889,-0.012222222222222223,-0.056666666666666664,-0.01,0.11,0.36
2025-01-03 10:48:35.344203,-0.02165385735581571,0.0006672056888346577,-0.7999796209127547,0.5996359490744934,-0.023333333333333334,-0.042222222222222223,-0.03777777777777778,-0.34,0.07,0.22
2025-01-03 10:48:35.354870,-0.02160673339297748,0.00036621582021995725,-0.7971908046488103,0.6033405638123795,0.06666666666666667,-0.008888888888888889,-0.012222222222222223,-0.3,-0.2,-0.12
2025-01-03 10:48:35.368627,-0.02166774119148075,0.0003051794534011373,-0.7971897681744509,0.6033397793740485,0.0011111111111111111,-0.023333333333333334,-0.008888888888888889,-0.3,-0.02,-0.83
2025-01-03 10:48:35.383198,-0.021850760216505043,0.000488285144502906,-0.7971865340440569,0.6033373316764032,-0.04555555555555556,0.0011111111111111111,-0.006666666666666667,0.49,-0.16,1.56
2025-01-03 10:48:35.394213,-0.02178949814113797,0.00012207001759741161,-0.7972392849286952,0.6032700269664082,0.025555555555555557,-0.025555555555555557,-0.013333333333333334,0.65,-0.08,0.88
2025-01-03 10:48:35.408658,-0.021912027363371844,0.00030518143960127917,-0.7971339202385412,0.6034047423796493,-0.03777777777777778,-0.0011111111111111111,0.028888888888888888,0.41,-0.2,-0.06
2025-01-03 10:48:35.421113,-0.021850474054367484,0.0002441393749091339,-0.7970540242345948,0.6035125347753789,0.013333333333333334,0.0022222222222222222,0.03111111111111111,-0.01,-0.32,-0.74
2025-01-03 10:48:35.434424,-0.021667712333935118,6.103580939136653e-05,-0.7970055990324642,0.6035831190712235,0.057777777777777775,-0.03888888888888889,0.015555555555555555,0.33,0.21,1.45
2025-01-03 10:48:35.445243,-0.02160670365069038,0.0003662153161133963,-0.7970065996347881,0.603583876840896,-0.0044444444444444444,0.05,0.0044444444444444444,0.14,0.18,2.91
2025-01-03 10:48:35.458504,-0.021484689466516254,0.00018310814886235446,-0.7970087359482081,0.603585494699941,0.052222222222222225,0.0044444444444444444,0.0033333333333333335,0.19,-0.07,0.84
2025-01-03 10:48:35.471519,-0.02130141256721714,0.00030517783047589027,-0.7970634576369302,0.6035196775491206,-0.0033333333333333335,0.04,-0.017777777777777778,-0.53,-0.08,-1.83
2025-01-03 10:48:35.484214,-0.021423481464734346,0.000549320037557291,-0.7974295878540008,0.6030313301184483,-0.11444444444444445,-0.02666666666666667,-0.05555555555555555,-0.03,-0.1,-0.81
2025-01-03 10:48:35.494653,-0.0212409903855386,0.00012207465738815288,-0.7975137367168027,0.602926732840087,0.06,0.03888888888888889,-0.07222222222222222,-0.18,0.22,0.73
2025-01-03 10:48:35.506709,-0.0215454989677062,0.00018310622352158245,-0.7974276034364915,0.6030298294644115,-0.05,-0.04111111111111111,0.03,-0.11,0.21,-0.4
2025-01-03 10:48:35.518962,-0.021422949193491806,0.0003051702164315072,-0.797348741492242,0.6031384157552309,0.0,0.03111111111111111,0.027777777777777776,0.11,-0.19,-0.56
2025-01-03 10:48:35.532914,-0.021545754853577823,6.103613272968222e-05,-0.7973760379805684,0.6030980275019899,0.02,-0.04666666666666667,-0.012222222222222223,0.48,-0.17,0.56
2025-01-03 10:48:35.542903,-0.02166725518928894,0.00024413808663987537,-0.7974770600091529,0.6029600394788321,-0.03777777777777778,0.0,-0.02666666666666667,0.23,-0.24,1.04
2025-01-03 10:48:35.553702,-0.021545243572517622,6.10346843414097e-05,-0.7974791856048591,0.6029616466087864,0.03666666666666667,-0.005555555555555556,-0.013333333333333334,-0.18,-0.22,-0.95
2025-01-03 10:48:35.566960,-0.02117920115176757,-6.103516182065582e-05,-0.7974854243486889,0.6029663636262588,0.035555555555555556,0.04555555555555556,0.025555555555555557,-0.03,-0.26,-1.65
2025-01-03 10:48:35.580124,-0.02105715887189065,-0.00018310572932078825,-0.7973033807058191,0.6032113076257835,0.034444444444444444,0.01,0.05,0.03,0.42,0.09
2025-01-03 10:48:35.591009,-0.021239892004907154,0.0010375809312742,-0.7971673260807252,0.6033838286221613,-0.21777777777777776,0.26,0.05555555555555555,1.31,1.12,5.36
2025-01-03 10:48:35.601678,-0.02111808834178899,0.002197257746544519,-0.7971162824964284,0.6034524261134906,-0.18333333333333332,0.16111111111111112,0.017777777777777778,1.25,1.13,-0.34
2025-01-03 10:48:35.614972,-0.02099608287790878,0.0029907211076090996,-0.7974849386126631,0.6029659963687816,-0.0811111111111111,0.08444444444444445,-0.05444444444444444,-0.8,-0.5,-2.63
2025-01-03 10:48:35.628139,-0.021057122395407822,0.0024414054951197475,-0.7974851049808656,0.6029661221571997,0.07777777777777778,-0.08333333333333333,-0.0044444444444444444,-0.72,-1.65,-0.99
2025-01-03 10:48:35.638630,-0.02099586219375109,0.00109862069618465,-0.7971713840482063,0.6033869001378583,0.22666666666666666,-0.15,0.10444444444444445,-1.86,-1.63,0.38
2025-01-03 10:48:35.648282,-0.021179332795454173,-0.0003662132471836457,-0.7966969192480211,0.6040077156882262,0.2311111111111111,-0.21333333333333335,0.14888888888888888,-1.81,-1.89,2.01
2025-01-03 10:48:35.661950,-0.021179224111322812,0.0002441409119460843,-0.7961435138561809,0.6047370388904508,-0.10111111111111111,0.06555555555555556,0.19111111111111112,-1.57,-0.6,6.36
2025-01-03 10:48:35.674948,-0.02075207527121687,-0.0008544972170501065,-0.7957810511356634,0.6052281717334896,-0.01888888888888889,0.034444444444444444,0.1411111111111111,-2.18,1.9,-3.58
2025-01-03 10:48:35.687213,-0.0219120683017791,-0.00024414560781926576,-0.7959757178927611,0.6049317797741857,-0.2511111111111111,-0.11666666666666667,-0.057777777777777775,3.74,0.97,-1.4
2025-01-03 10:48:35.698114,-0.0217895029708625,0.00024414008930938376,-0.7958966911485911,0.6050401763309803,-0.058888888888888886,0.08555555555555555,0.02,1.62,1.3,0.45
2025-01-03 10:48:35.711468,-0.02154572836559594,-6.103605769290634e-05,-0.7958491562578057,0.6051114759674735,0.08444444444444445,0.0022222222222222222,0.017777777777777778,-0.58,-0.68,1.41
2025-01-03 10:48:35.724658,-0.021240475753096674,0.0006713943485174235,-0.7960905897920687,0.6048042363144681,-0.028888888888888888,0.04,-0.01888888888888889,-0.73,-0.93,-2.11
2025-01-03 10:48:35.736401,-0.021179260010433413,0.000549317982979541,-0.7963279693260079,0.6044939226032637,0.03666666666666667,-0.0011111111111111111,-0.07333333333333333,-0.96,-1.48,-0.8
2025-01-03 10:48:35.747338,-0.021423831119777637,0.0003662193353808143,-0.7964049813414774,0.6043839764901372,0.0077777777777777776,-0.06222222222222222,-0.03111111111111111,-0.43,0.0,0.73
2025-01-03 10:48:35.762174,-0.021484838420734082,0.000488291782289411,-0.7964038969140292,0.6043831535287184,-0.034444444444444444,-0.006666666666666667,0.008888888888888889,0.17,0.48,2.01
2025-01-03 10:48:35.772934,-0.021606059049999144,0.00030517032556495966,-0.7963724815943188,0.6044203468139592,0.021111111111111112,-0.03888888888888889,0.014444444444444444,0.48,0.62,0.33
2025-01-03 10:48:35.786711,-0.021911889896899527,0.0005493231450476205,-0.7963964885090391,0.6043775313623931,-0.06111111111111111,-0.021111111111111112,0.0,0.08,0.45,-1.7
2025-01-03 10:48:35.796633,-0.021606348362608944,0.0004272441766617588,-0.7965052150622789,0.6042453355644875,0.06555555555555556,0.03333333333333333,-0.03777777777777778,-0.06,-0.15,-0.37
2025-01-03 10:48:35.809526,-0.021728393156207358,0.0006713829346019128,-0.7966874041235243,0.6040005018927753,-0.052222222222222225,0.012222222222222223,-0.051111111111111114,-0.25,-0.34,0.75
2025-01-03 10:48:35.823639,-0.0216066654567833,0.0008545008937710909,-0.7968220834415423,0.6038269530055288,-0.016666666666666666,0.04,-0.04555555555555556,-0.44,-0.98,0.56
2025-01-03 10:48:35.836114,-0.021850182938359258,0.00048827224443260907,-0.7969213369445721,0.603687596210367,0.03,-0.03777777777777778,-0.04,-0.44,-0.72,-1.28
2025-01-03 10:48:35.846449,-0.021728429985666195,0.0003662094941404415,-0.7968718592496007,0.6037573860062079,0.008888888888888889,-0.043333333333333335,-0.0011111111111111111,-0.12,-0.31,-0.64
2025-01-03 10:48:35.859899,-0.021727885212082326,0.00036620031256318525,-0.7967908467520639,0.6038643154166925,0.0022222222222222222,-0.0033333333333333335,0.023333333333333334,0.34,0.64,-0.78
2025-01-03 10:48:35.873594,-0.02160587602724176,0.00030516774049776495,-0.7967929704396643,0.6038659248969773,0.02,0.01888888888888889,0.0,0.42,0.77,-0.34
2025-01-03 10:48:35.886882,-0.02142263824477745,0.00036619894435517005,-0.7970320023890276,0.6035568934547128,-0.0044444444444444444,0.016666666666666666,-0.02666666666666667,-0.05,-0.16,1.84
2025-01-03 10:48:35.899252,-0.020995873456569895,0.0003662070951727307,-0.7971718116751726,0.603387223812936,0.05,0.07333333333333333,-0.04666666666666667,-0.13,-0.33,-0.31
2025-01-03 10:48:35.913239,-0.021729029887022244,0.0006714026088686649,-0.7973211163319427,0.603163689167286,-0.14555555555555555,-0.08444444444444445,-0.05,-0.27,-0.21,-0.65
2025-01-03 10:48:35.926845,-0.021422947637317988,0.0004882723108220624,-0.7973486835724279,0.6031383719429526,-0.023333333333333334,0.027777777777777776,-0.023333333333333334,0.03,0.07,1.16
2025-01-03 10:48:35.937672,-0.021911768554684106,0.0002441422680187644,-0.7971855406482705,0.6033365798413716,-0.01888888888888889,-0.12,0.044444444444444446,-0.08,0.06,-2.36
2025-01-03 10:48:35.949710,-0.022034041699098027,0.00012207225318059848,-0.7971318132693082,0.6034031474716983,0.01,-0.027777777777777776,0.02,0.1,-0.44,-2.83
2025-01-03 10:48:35.962572,-0.02227698183311588,-0.00012206565388008702,-0.7971497526639082,0.6033705271292701,0.008888888888888889,-0.07,-0.01,1.02,-0.49,3.84
2025-01-03 10:48:35.976045,-0.022155234245894304,0.0006103370315673362,-0.7971001632269411,0.6034402231106253,-0.06444444444444444,0.06,0.005555555555555556,0.66,0.28,0.9
2025-01-03 10:48:35.988131,-0.022521817986559525,0.0003662084225456833,-0.7971747011448617,0.6033283761440132,-0.012222222222222223,-0.09888888888888889,-0.035555555555555556,-0.55,-0.4,-4.05
2025-01-03 10:48:35.999368,-0.02209454392049343,0.0009155197757110537,-0.7974177246443278,0.6030223589350141,-0.03111111111111111,0.1388888888888889,-0.07111111111111111,0.37,0.17,-0.01
2025-01-03 10:48:36.011548,-0.021728539868076595,0.0006713874678338274,-0.797608311786587,0.6027838756660799,0.08333333333333333,0.03666666666666667,-0.057777777777777775,-0.49,-0.33,2.78
2025-01-03 10:48:36.024763,-0.02178874936975313,6.103291139986871e-05,-0.7975780861734842,0.6028220658965032,0.09666666666666666,-0.09222222222222222,0.005555555555555556,-0.48,0.4,1.77
2025-01-03 10:48:36.037443,-0.02203356791507441,0.0007324177700301742,-0.7976029515628598,0.6027798247348334,-0.04777777777777778,0.006666666666666667,-0.02666666666666667,-0.02,0.28,-3.32
2025-01-03 10:48:36.048878,-0.02215505387714422,0.0004882656501849966,-0.7977040059897381,0.602641878740832,0.017777777777777778,-0.052222222222222225,-0.03333333333333333,0.52,-0.12,-2.42
2025-01-03 10:48:36.061757,-0.02221605464310285,0.000671364288665196,-0.7977028411685556,0.6026409987527405,-0.03222222222222222,0.014444444444444444,0.008888888888888889,0.85,-0.11,0.55
2025-01-03 10:48:36.074813,-0.022277586671254443,0.0007324138083700091,-0.7975986373149399,0.6027765642885174,-0.015555555555555555,-0.013333333333333334,0.04111111111111111,-0.05,-0.07,2.94
2025-01-03 10:48:36.087398,-0.02233914572591663,0.0007934669246910278,-0.7976784029836187,0.6026686472614776,0.0,-0.022222222222222223,0.0044444444444444444,-0.19,-0.55,-3.17
2025-01-03 10:48:36.098218,-0.022521626531123034,0.0006713764006567842,-0.7977782666349842,0.602529802480343,0.0,-0.04111111111111111,-0.027777777777777776,-0.19,-0.33,-2.84
2025-01-03 10:48:36.110652,-0.022583166606265425,0.0007324270250680679,-0.7976740658845483,0.6026653704601751,-0.015555555555555555,-0.0033333333333333335,0.034444444444444444,0.06,-0.07,2.72
2025-01-03 10:48:36.123720,-0.022338566565779133,0.0006103433487917796,-0.79741358519646,0.6030192286062782,0.05555555555555555,0.024444444444444446,0.09,-0.22,0.09,4.25
2025-01-03 10:48:36.136842,-0.02294913509604423,0.000732419205192901,-0.7972993397862388,0.603147215476354,-0.022222222222222223,-0.07111111111111111,0.05333333333333334,-0.04,0.21,-1.78
2025-01-03 10:48:36.147340,-0.02264414550371906,0.000732425191494956,-0.797488962672758,0.602908003465598,-0.07555555555555556,-0.013333333333333334,-0.02666666666666667,0.54,-0.04,-0.95
2025-01-03 10:48:36.160444,-0.022338860779657833,0.0003662108324534071,-0.7975461579447785,0.6028440653570504,0.09666666666666666,0.0033333333333333335,-0.015555555555555555,0.61,-0.17,0.95
2025-01-03 10:48:36.174115,-0.022094289472089454,0.00036620369290756,-0.7974695752550298,0.6029543803722975,0.03333333333333333,0.044444444444444446,0.03,0.55,-0.68,1.6
2025-01-03 10:48:36.187014,-0.022277876888232608,0.0006713880706042703,-0.7977310984361649,0.6026013110069055,-0.035555555555555556,0.03111111111111111,-0.011111111111111112,-0.29,0.26,-1.48
