time,orientation_x,orientation_y,orientation_z,orientation_w,angular_velocity_x,angular_velocity_y,angular_velocity_z,linear_acceleration_x,linear_acceleration_y,linear_acceleration_z
2025-01-03 10:55:26.851227,-0.008850106409581057,-0.004516606029717229,0.31848176031168246,0.9478769140744401,0.0011111111111111111,-0.0011111111111111111,-0.0011111111111111111,-0.13,-0.06,0.04
2025-01-03 10:55:26.860665,-0.008850106409581057,-0.004516606029717229,0.31848176031168246,0.9478769140744401,0.0011111111111111111,-0.0022222222222222222,0.0011111111111111111,-0.07,-0.04,-0.01
2025-01-03 10:55:26.869600,-0.008850106409581057,-0.004516606029717229,0.31848176031168246,0.9478769140744401,0.0011111111111111111,-0.0022222222222222222,0.0,0.0,-0.01,0.02
2025-01-03 10:55:26.882663,-0.008850106409581057,-0.004516606029717229,0.31848176031168246,0.9478769140744401,0.0033333333333333335,-0.005555555555555556,0.0,0.07,0.01,0.01
2025-01-03 10:55:26.894741,-0.008850106409581057,-0.004516606029717229,0.31848176031168246,0.9478769140744401,0.0,-0.0033333333333333335,0.0,0.04,0.02,0.02
2025-01-03 10:55:26.909598,-0.008850106409581057,-0.004516606029717229,0.31848176031168246,0.9478769140744401,0.0,-0.0011111111111111111,0.0022222222222222222,0.11,0.01,0.02
2025-01-03 10:55:26.922677,-0.008850106409581057,-0.004516606029717229,0.31848176031168246,0.9478769140744401,-0.0022222222222222222,0.0011111111111111111,0.0011111111111111111,0.15,-0.07,0.06
2025-01-03 10:55:26.933942,-0.008850106409581057,-0.004516606029717229,0.31848176031168246,0.9478769140744401,0.0,0.0,-0.0011111111111111111,0.07,-0.04,0.0
2025-01-03 10:55:26.948969,-0.008850106409581057,-0.004516606029717229,0.31848176031168246,0.9478769140744401,-0.0011111111111111111,0.005555555555555556,-0.0011111111111111111,-0.04,-0.04,0.03
2025-01-03 10:55:26.961679,-0.008850106409581057,-0.004516606029717229,0.31848176031168246,0.9478769140744401,0.0,0.0022222222222222222,0.0,-0.06,-0.07,0.0
2025-01-03 10:55:26.975299,-0.008850106409581057,-0.004516606029717229,0.31848176031168246,0.9478769140744401,0.0,0.0011111111111111111,-0.0022222222222222222,-0.19,-0.06,0.04
2025-01-03 10:55:26.987940,-0.008850106409581057,-0.004516606029717229,0.31848176031168246,0.9478769140744401,0.0,0.0,0.0,-0.07,-0.08,-0.03
2025-01-03 10:55:27.001959,-0.008850106409581057,-0.004516606029717229,0.31848176031168246,0.9478769140744401,0.0022222222222222222,-0.0044444444444444444,0.0,-0.08,-0.09,0.01
2025-01-03 10:55:27.013110,-0.008850106409581057,-0.004516606029717229,0.31848176031168246,0.9478769140744401,0.0,0.0,0.0,0.03,-0.01,0.05
2025-01-03 10:55:27.025076,-0.008789003630818406,-0.004516571310281681,0.32067656302999936,0.9471372107155559,-0.0022222222222222222,-0.0044444444444444444,0.0,0.05,0.01,0.02
2025-01-03 10:55:27.038568,-0.008789003630818406,-0.004516571310281681,0.32067656302999936,0.9471372107155559,0.0022222222222222222,-0.0033333333333333335,0.0,0.12,0.03,0.05
2025-01-03 10:55:27.051654,-0.008789003630818406,-0.004516571310281681,0.32067656302999936,0.9471372107155559,-0.0022222222222222222,0.0,0.0,0.14,-0.05,0.04
2025-01-03 10:55:27.063632,-0.008789003630818406,-0.004516571310281681,0.32067656302999936,0.9471372107155559,0.0,0.0033333333333333335,-0.0011111111111111111,0.06,-0.07,0.0
2025-01-03 10:55:27.075495,-0.008788995478283063,-0.004516567120784352,0.32085936964815326,0.9470752974758215,0.0,0.0033333333333333335,-0.0011111111111111111,0.06,-0.06,0.02
2025-01-03 10:55:27.088874,-0.008788995478283063,-0.004516567120784352,0.32085936964815326,0.9470752974758215,-0.0022222222222222222,0.005555555555555556,0.0,-0.02,-0.02,0.05
2025-01-03 10:55:27.102157,-0.008788995478283063,-0.004516567120784352,0.32085936964815326,0.9470752974758215,0.0011111111111111111,0.0,-0.0011111111111111111,-0.16,-0.06,0.05
2025-01-03 10:55:27.113314,-0.008788995478283063,-0.004516567120784352,0.32085936964815326,0.9470752974758215,0.0,0.0,0.0,-0.14,-0.06,0.02
2025-01-03 10:55:27.125802,-0.008850117190555567,-0.004516611531731806,0.3179328306593376,0.9480611746268939,0.0022222222222222222,-0.0022222222222222222,0.0,-0.1,-0.01,0.05
2025-01-03 10:55:27.139942,-0.008850117190555567,-0.004516611531731806,0.3179328306593376,0.9480611746268939,0.0022222222222222222,-0.0011111111111111111,0.0,-0.02,-0.11,0.05
2025-01-03 10:55:27.152366,-0.008850117190555567,-0.004516611531731806,0.3179328306593376,0.9480611746268939,0.0,0.0,-0.0022222222222222222,0.11,-0.08,-0.04
2025-01-03 10:55:27.164606,-0.008850117190555567,-0.004516611531731806,0.3179328306593376,0.9480611746268939,0.0022222222222222222,0.0,0.0,0.1,0.05,0.08
2025-01-03 10:55:27.176842,-0.008850097573827043,-0.00451660152043587,0.3188476532804998,0.947753897423354,0.0,0.0,0.0011111111111111111,0.14,-0.05,-0.02
2025-01-03 10:55:27.190717,-0.008850097573827043,-0.00451660152043587,0.3188476532804998,0.947753897423354,0.0,0.0011111111111111111,0.0,0.13,0.06,-0.03
2025-01-03 10:55:27.203246,-0.008850097573827043,-0.00451660152043587,0.3188476532804998,0.947753897423354,0.0,0.0,-0.0011111111111111111,0.08,-0.03,0.01
2025-01-03 10:55:27.213967,-0.008850097573827043,-0.00451660152043587,0.3188476532804998,0.947753897423354,-0.0011111111111111111,0.0077777777777777776,0.0,-0.01,-0.05,0.03
2025-01-03 10:55:27.226880,-0.008789026124075736,-0.0045165828693166975,0.3201280695887308,0.9473227393873577,0.0011111111111111111,0.0,0.0,-0.1,-0.06,0.06
2025-01-03 10:55:27.241558,-0.008789026124075736,-0.0045165828693166975,0.3201280695887308,0.9473227393873577,0.0022222222222222222,0.0022222222222222222,0.0,-0.1,-0.05,0.01
2025-01-03 10:55:27.254092,-0.008789026124075736,-0.0045165828693166975,0.3201280695887308,0.9473227393873577,0.0,-0.0022222222222222222,0.0,-0.14,-0.06,0.02
2025-01-03 10:55:27.265006,-0.008789026124075736,-0.0045165828693166975,0.3201280695887308,0.9473227393873577,0.0022222222222222222,-0.0044444444444444444,0.0,-0.09,-0.04,0.0
2025-01-03 10:55:27.277844,-0.008789026124075736,-0.0045165828693166975,0.3201280695887308,0.9473227393873577,0.0033333333333333335,-0.0044444444444444444,0.0,-0.05,0.08,0.13
2025-01-03 10:55:27.291776,-0.008789026124075736,-0.0045165828693166975,0.3201280695887308,0.9473227393873577,-0.0011111111111111111,-0.0033333333333333335,0.0011111111111111111,0.11,0.04,0.0
2025-01-03 10:55:27.304532,-0.008789026124075736,-0.0045165828693166975,0.3201280695887308,0.9473227393873577,0.0044444444444444444,-0.0011111111111111111,0.0,0.14,-0.06,-0.04
2025-01-03 10:55:27.317895,-0.004557228600134911,-0.0023419091417359963,-0.8710319636216192,0.49119961876870805,0.0,0.0011111111111111111,-0.0011111111111111111,0.15,0.0,-0.04
2025-01-03 10:55:27.332425,-0.008789026124075736,-0.0045165828693166975,0.3201280695887308,0.9473227393873577,-0.0022222222222222222,0.0033333333333333335,0.0,0.09,-0.03,0.0
2025-01-03 10:55:27.344229,-0.008789026124075736,-0.0045165828693166975,0.3201280695887308,0.9473227393873577,0.0,0.0044444444444444444,0.0,0.0,-0.08,0.0
2025-01-03 10:55:27.355917,-0.008789026124075736,-0.0045165828693166975,0.3201280695887308,0.9473227393873577,0.0,0.0011111111111111111,0.0,-0.1,-0.05,0.04
2025-01-03 10:55:27.365972,-0.008789026124075736,-0.0045165828693166975,0.3201280695887308,0.9473227393873577,0.0,0.0044444444444444444,0.0011111111111111111,-0.08,-0.11,0.01
2025-01-03 10:55:27.381101,-0.008789026124075736,-0.0045165828693166975,0.3201280695887308,0.9473227393873577,0.0,0.0,0.0022222222222222222,-0.13,-0.03,0.05
2025-01-03 10:55:27.393412,-0.008789026124075736,-0.0045165828693166975,0.3201280695887308,0.9473227393873577,0.0011111111111111111,-0.0011111111111111111,0.0011111111111111111,-0.08,-0.07,0.0
2025-01-03 10:55:27.405883,-0.008789026124075736,-0.0045165828693166975,0.3201280695887308,0.9473227393873577,0.0033333333333333335,-0.0044444444444444444,0.0,0.01,-0.1,-0.02
2025-01-03 10:55:27.415580,-0.008789026124075736,-0.0045165828693166975,0.3201280695887308,0.9473227393873577,0.0,-0.0044444444444444444,0.0,0.04,-0.1,-0.04
2025-01-03 10:55:27.429996,-0.008789026124075736,-0.0045165828693166975,0.3201280695887308,0.9473227393873577,0.0,-0.0022222222222222222,-0.0011111111111111111,0.14,0.03,0.02
2025-01-03 10:55:27.443716,-0.008789026124075736,-0.0045165828693166975,0.3201280695887308,0.9473227393873577,0.0,0.0,0.0011111111111111111,0.11,0.03,0.01
2025-01-03 10:55:27.456262,-0.008789026124075736,-0.0045165828693166975,0.3201280695887308,0.9473227393873577,0.0,0.0,-0.0033333333333333335,0.12,0.02,0.04
2025-01-03 10:55:27.465970,-0.008789026124075736,-0.0045165828693166975,0.3201280695887308,0.9473227393873577,-0.0022222222222222222,0.0033333333333333335,0.0,0.08,-0.02,-0.02
2025-01-03 10:55:27.479531,-0.008789026124075736,-0.0045165828693166975,0.3201280695887308,0.9473227393873577,0.0,0.005555555555555556,0.0,0.03,-0.03,0.08
2025-01-03 10:55:27.493128,-0.008789026124075736,-0.0045165828693166975,0.3201280695887308,0.9473227393873577,0.0,0.0022222222222222222,0.0,-0.11,-0.1,0.0
2025-01-03 10:55:27.506262,-0.008789026124075736,-0.0045165828693166975,0.3201280695887308,0.9473227393873577,0.0011111111111111111,0.0,0.0,-0.13,-0.07,0.02
2025-01-03 10:55:27.521852,-0.008789026124075736,-0.0045165828693166975,0.3201280695887308,0.9473227393873577,0.0011111111111111111,0.0,-0.0022222222222222222,-0.09,-0.08,0.0
2025-01-03 10:55:27.533741,-0.008789026124075736,-0.0045165828693166975,0.3201280695887308,0.9473227393873577,0.0011111111111111111,-0.0022222222222222222,0.0,0.0,-0.14,-0.03
2025-01-03 10:55:27.547010,-0.008789026124075736,-0.0045165828693166975,0.3201280695887308,0.9473227393873577,0.0033333333333333335,-0.005555555555555556,-0.0022222222222222222,-0.01,0.07,0.08
2025-01-03 10:55:27.560357,-0.008789026124075736,-0.0045165828693166975,0.3201280695887308,0.9473227393873577,-0.0022222222222222222,-0.0044444444444444444,0.0,0.1,0.03,0.0
2025-01-03 10:55:27.572549,-0.008789026124075736,-0.0045165828693166975,0.3201280695887308,0.9473227393873577,0.0,-0.0011111111111111111,0.0,0.11,0.03,0.01
2025-01-03 10:55:27.585388,-0.008789026124075736,-0.0045165828693166975,0.3201280695887308,0.9473227393873577,-0.0011111111111111111,-0.0022222222222222222,0.0,0.09,0.02,0.0
2025-01-03 10:55:27.598576,-0.008789026124075736,-0.0045165828693166975,0.3201280695887308,0.9473227393873577,0.0,0.0011111111111111111,0.0,0.09,-0.03,0.0
2025-01-03 10:55:27.613142,-0.008789026124075736,-0.0045165828693166975,0.3201280695887308,0.9473227393873577,-0.0022222222222222222,0.0077777777777777776,0.0,0.0,-0.05,0.09
2025-01-03 10:55:27.626974,-0.008789026124075736,-0.0045165828693166975,0.3201280695887308,0.9473227393873577,0.0022222222222222222,0.0022222222222222222,0.0,-0.05,-0.13,-0.09
2025-01-03 10:55:27.641975,-0.008789026124075736,-0.0045165828693166975,0.3201280695887308,0.9473227393873577,0.0,0.0033333333333333335,0.0,-0.15,-0.1,0.09
2025-01-03 10:55:27.655598,-0.008789026124075736,-0.0045165828693166975,0.3201280695887308,0.9473227393873577,0.0033333333333333335,-0.0033333333333333335,0.0,-0.08,-0.05,0.06
2025-01-03 10:55:27.666727,-0.008789026124075736,-0.0045165828693166975,0.3201280695887308,0.9473227393873577,0.0,-0.0033333333333333335,0.0,0.0,-0.17,-0.02
2025-01-03 10:55:27.679466,-0.008789026124075736,-0.0045165828693166975,0.3201280695887308,0.9473227393873577,0.005555555555555556,-0.005555555555555556,-0.0022222222222222222,0.01,0.08,0.09
2025-01-03 10:55:27.694224,-0.008789026124075736,-0.0045165828693166975,0.3201280695887308,0.9473227393873577,-0.0033333333333333335,-0.0022222222222222222,0.0011111111111111111,0.06,0.03,0.01
2025-01-03 10:55:27.706929,-0.008789026124075736,-0.0045165828693166975,0.3201280695887308,0.9473227393873577,0.0,-0.0022222222222222222,0.0,0.18,0.01,0.0
2025-01-03 10:55:27.717214,-0.008789026124075736,-0.0045165828693166975,0.3201280695887308,0.9473227393873577,-0.0022222222222222222,0.0022222222222222222,0.0,0.11,0.02,0.01
2025-01-03 10:55:27.730477,-0.008789026124075736,-0.0045165828693166975,0.3201280695887308,0.9473227393873577,0.0,0.0022222222222222222,-0.0011111111111111111,0.13,-0.05,0.05
2025-01-03 10:55:27.743988,-0.008789026124075736,-0.0045165828693166975,0.3201280695887308,0.9473227393873577,0.0,0.0044444444444444444,0.0,-0.01,-0.06,-0.01
2025-01-03 10:55:27.756523,-0.008789026124075736,-0.0045165828693166975,0.3201280695887308,0.9473227393873577,0.0,0.0,0.0,-0.06,-0.11,0.02
2025-01-03 10:55:27.767124,-0.008789026124075736,-0.0045165828693166975,0.3201280695887308,0.9473227393873577,0.0,0.0033333333333333335,0.0,-0.09,-0.06,0.03
2025-01-03 10:55:27.780060,-0.008789026124075736,-0.0045165828693166975,0.3201280695887308,0.9473227393873577,-0.0011111111111111111,0.0,0.0,-0.13,-0.04,0.02
2025-01-03 10:55:27.794291,-0.008789026124075736,-0.0045165828693166975,0.3201280695887308,0.9473227393873577,0.0011111111111111111,0.0,0.0,-0.08,0.0,0.04
2025-01-03 10:55:27.807827,-0.008789026124075736,-0.0045165828693166975,0.3201280695887308,0.9473227393873577,0.0022222222222222222,-0.0033333333333333335,0.0,-0.01,0.06,0.05
2025-01-03 10:55:27.818303,-0.008789026124075736,-0.0045165828693166975,0.3201280695887308,0.9473227393873577,-0.0033333333333333335,-0.0033333333333333335,0.0011111111111111111,0.1,-0.04,-0.03
2025-01-03 10:55:27.830839,-0.008789026124075736,-0.0045165828693166975,0.3201280695887308,0.9473227393873577,0.0,-0.0011111111111111111,0.0011111111111111111,0.08,0.05,0.06
2025-01-03 10:55:27.845231,-0.008789026124075736,-0.0045165828693166975,0.3201280695887308,0.9473227393873577,0.0,0.0,0.0,0.13,0.01,0.0
2025-01-03 10:55:27.857460,-0.008789026124075736,-0.0045165828693166975,0.3201280695887308,0.9473227393873577,-0.0011111111111111111,0.005555555555555556,-0.0011111111111111111,0.06,0.01,0.05
2025-01-03 10:55:27.869675,-0.008789026124075736,-0.0045165828693166975,0.3201280695887308,0.9473227393873577,-0.0011111111111111111,0.0,0.0,0.07,-0.07,-0.05
2025-01-03 10:55:27.883311,-0.008789026124075736,-0.0045165828693166975,0.3201280695887308,0.9473227393873577,0.0,0.0033333333333333335,0.0,0.01,-0.04,0.06
2025-01-03 10:55:27.895970,-0.008789026124075736,-0.0045165828693166975,0.3201280695887308,0.9473227393873577,0.0,0.0033333333333333335,0.0,-0.07,-0.1,-0.03
2025-01-03 10:55:27.910211,-0.008789026124075736,-0.0045165828693166975,0.3201280695887308,0.9473227393873577,0.0011111111111111111,0.0022222222222222222,0.0,-0.1,-0.03,0.03
2025-01-03 10:55:27.923651,-0.008789026124075736,-0.0045165828693166975,0.3201280695887308,0.9473227393873577,0.0,0.0,0.0022222222222222222,-0.1,-0.08,0.03
2025-01-03 10:55:27.935412,-0.008789026124075736,-0.0045165828693166975,0.3201280695887308,0.9473227393873577,0.0011111111111111111,-0.0022222222222222222,0.0,0.0,-0.01,0.03
2025-01-03 10:55:27.947394,-0.008789026124075736,-0.0045165828693166975,0.3201280695887308,0.9473227393873577,-0.0011111111111111111,-0.0044444444444444444,0.0,-0.03,0.02,0.02
2025-01-03 10:55:27.959996,-0.008789026124075736,-0.0045165828693166975,0.3201280695887308,0.9473227393873577,0.0,-0.0044444444444444444,0.0011111111111111111,0.15,0.08,0.04
2025-01-03 10:55:27.972665,-0.008789026124075736,-0.0045165828693166975,0.3201280695887308,0.9473227393873577,0.0011111111111111111,0.0,0.0011111111111111111,0.1,0.01,0.07
2025-01-03 10:55:27.985638,-0.008789026124075736,-0.0045165828693166975,0.3201280695887308,0.9473227393873577,-0.0033333333333333335,0.0011111111111111111,0.0,0.19,-0.04,0.03
2025-01-03 10:55:27.999232,-0.008789026124075736,-0.0045165828693166975,0.3201280695887308,0.9473227393873577,0.0,0.0,-0.0022222222222222222,0.05,-0.06,-0.06
2025-01-03 10:55:28.012948,-0.008789026124075736,-0.0045165828693166975,0.3201280695887308,0.9473227393873577,0.0,0.005555555555555556,-0.0033333333333333335,0.03,-0.08,0.0
2025-01-03 10:55:28.025139,-0.008789026124075736,-0.0045165828693166975,0.3201280695887308,0.9473227393873577,0.0,0.0033333333333333335,0.0,-0.12,-0.1,0.0
2025-01-03 10:55:28.040198,-0.008789026124075736,-0.0045165828693166975,0.3201280695887308,0.9473227393873577,0.0,0.0,0.0011111111111111111,-0.09,-0.14,0.05
2025-01-03 10:55:28.049059,-0.008789026124075736,-0.0045165828693166975,0.3201280695887308,0.9473227393873577,0.0011111111111111111,-0.0022222222222222222,0.0,-0.14,0.01,0.02
2025-01-03 10:55:28.062860,-0.008789026124075736,-0.0045165828693166975,0.3201280695887308,0.9473227393873577,0.0,-0.0044444444444444444,0.0,-0.1,-0.04,0.02
2025-01-03 10:55:28.073782,-0.008789026124075736,-0.0045165828693166975,0.3201280695887308,0.9473227393873577,0.0022222222222222222,0.0,0.0,0.02,-0.05,0.01
2025-01-03 10:55:28.086922,-0.008789026124075736,-0.0045165828693166975,0.3201280695887308,0.9473227393873577,0.0011111111111111111,-0.0033333333333333335,0.0,0.04,-0.08,-0.04
2025-01-03 10:55:28.099059,-0.008789026124075736,-0.0045165828693166975,0.3201280695887308,0.9473227393873577,0.0022222222222222222,0.0,0.0,0.12,-0.03,0.01
2025-01-03 10:55:28.112527,-0.008789026124075736,-0.0045165828693166975,0.3201280695887308,0.9473227393873577,-0.0033333333333333335,-0.0022222222222222222,0.0,0.08,0.05,0.0
2025-01-03 10:55:28.124646,-0.008789026124075736,-0.0045165828693166975,0.3201280695887308,0.9473227393873577,0.0,0.0022222222222222222,-0.0022222222222222222,0.15,-0.07,0.0
2025-01-03 10:55:28.136413,-0.008789026124075736,-0.0045165828693166975,0.3201280695887308,0.9473227393873577,-0.0011111111111111111,0.0022222222222222222,0.0,-0.01,-0.09,0.05
2025-01-03 10:55:28.147894,-0.008789026124075736,-0.0045165828693166975,0.3201280695887308,0.9473227393873577,0.0,0.0033333333333333335,-0.0022222222222222222,-0.02,-0.07,-0.06
2025-01-03 10:55:28.160719,-0.008789026124075736,-0.0045165828693166975,0.3201280695887308,0.9473227393873577,0.0,0.0022222222222222222,0.0,-0.07,-0.07,0.08
2025-01-03 10:55:28.171792,-0.008789026124075736,-0.0045165828693166975,0.3201280695887308,0.9473227393873577,0.0,0.0,0.0,-0.11,-0.09,0.06
2025-01-03 10:55:28.186409,-0.008789026124075736,-0.0045165828693166975,0.3201280695887308,0.9473227393873577,0.0022222222222222222,-0.0022222222222222222,0.0,-0.09,-0.01,0.07
2025-01-03 10:55:28.198585,-0.008789026124075736,-0.0045165828693166975,0.3201280695887308,0.9473227393873577,0.0033333333333333335,-0.0044444444444444444,0.0,-0.08,-0.05,0.0
2025-01-03 10:55:28.215594,-0.008789026124075736,-0.0045165828693166975,0.3201280695887308,0.9473227393873577,0.0022222222222222222,-0.006666666666666667,0.0,-0.02,0.04,0.06
2025-01-03 10:55:28.229064,-0.008789026124075736,-0.0045165828693166975,0.3201280695887308,0.9473227393873577,0.0033333333333333335,-0.0033333333333333335,0.0,0.1,0.06,0.06
2025-01-03 10:55:28.242402,-0.008789026124075736,-0.0045165828693166975,0.3201280695887308,0.9473227393873577,-0.0011111111111111111,-0.0022222222222222222,0.0,0.14,-0.05,-0.01
2025-01-03 10:55:28.255227,-0.008789026124075736,-0.0045165828693166975,0.3201280695887308,0.9473227393873577,0.0,0.0011111111111111111,0.0033333333333333335,0.11,-0.05,0.0
2025-01-03 10:55:28.269294,-0.008789026124075736,-0.0045165828693166975,0.3201280695887308,0.9473227393873577,-0.0011111111111111111,0.0033333333333333335,0.0,0.08,-0.05,0.02
2025-01-03 10:55:28.282924,-0.008789026124075736,-0.0045165828693166975,0.3201280695887308,0.9473227393873577,-0.0011111111111111111,0.0033333333333333335,-0.0011111111111111111,-0.02,-0.07,-0.01
2025-01-03 10:55:28.295002,-0.008789026124075736,-0.0045165828693166975,0.3201280695887308,0.9473227393873577,-0.0011111111111111111,0.006666666666666667,0.0,-0.06,-0.11,0.06
2025-01-03 10:55:28.307890,-0.008789026124075736,-0.0045165828693166975,0.3201280695887308,0.9473227393873577,0.0011111111111111111,0.0022222222222222222,0.0,-0.12,-0.09,0.05
2025-01-03 10:55:28.319741,-0.008789026124075736,-0.0045165828693166975,0.3201280695887308,0.9473227393873577,0.0,0.0011111111111111111,0.0011111111111111111,-0.06,0.0,0.01
2025-01-03 10:55:28.331714,-0.008789026124075736,-0.0045165828693166975,0.3201280695887308,0.9473227393873577,0.0,0.0,0.0,-0.07,-0.02,0.03
2025-01-03 10:55:28.345606,-0.008789026124075736,-0.0045165828693166975,0.3201280695887308,0.9473227393873577,0.0011111111111111111,-0.0022222222222222222,0.0,0.02,-0.08,0.0
2025-01-03 10:55:28.358294,-0.008789026124075736,-0.0045165828693166975,0.3201280695887308,0.9473227393873577,0.0,-0.0011111111111111111,0.0033333333333333335,0.07,0.02,0.02
2025-01-03 10:55:28.369785,-0.008789026124075736,-0.0045165828693166975,0.3201280695887308,0.9473227393873577,0.0011111111111111111,-0.0033333333333333335,0.0,0.13,-0.01,0.0
2025-01-03 10:55:28.382574,-0.008789026124075736,-0.0045165828693166975,0.3201280695887308,0.9473227393873577,-0.0022222222222222222,-0.0011111111111111111,0.0,0.16,0.04,-0.02
2025-01-03 10:55:28.396764,-0.008789026124075736,-0.0045165828693166975,0.3201280695887308,0.9473227393873577,-0.0011111111111111111,0.0022222222222222222,0.0,0.05,-0.12,-0.07
2025-01-03 10:55:28.410138,-0.008789026124075736,-0.0045165828693166975,0.3201280695887308,0.9473227393873577,0.0,0.0022222222222222222,0.0,-0.02,-0.01,0.04
2025-01-03 10:55:28.420526,-0.008789026124075736,-0.0045165828693166975,0.3201280695887308,0.9473227393873577,-0.0022222222222222222,0.005555555555555556,0.0,-0.07,-0.08,0.03
2025-01-03 10:55:28.433397,-0.008789026124075736,-0.0045165828693166975,0.3201280695887308,0.9473227393873577,0.0022222222222222222,0.0011111111111111111,0.0,-0.11,-0.08,0.02
2025-01-03 10:55:28.447266,-0.008789026124075736,-0.0045165828693166975,0.3201280695887308,0.9473227393873577,0.0011111111111111111,0.0,0.0,-0.13,-0.07,-0.02
2025-01-03 10:55:28.460383,-0.008789026124075736,-0.0045165828693166975,0.3201280695887308,0.9473227393873577,0.0,-0.005555555555555556,-0.0011111111111111111,-0.05,-0.05,0.0
2025-01-03 10:55:28.471195,-0.008789026124075736,-0.0045165828693166975,0.3201280695887308,0.9473227393873577,0.0011111111111111111,-0.0033333333333333335,-0.0011111111111111111,0.0,0.02,0.08
2025-01-03 10:55:28.484921,-0.008789026124075736,-0.0045165828693166975,0.3201280695887308,0.9473227393873577,0.0,-0.0077777777777777776,-0.0011111111111111111,0.02,-0.04,0.0
2025-01-03 10:55:28.498078,-0.008789026124075736,-0.0045165828693166975,0.3201280695887308,0.9473227393873577,0.0,-0.006666666666666667,0.0,0.09,0.0,0.01
2025-01-03 10:55:28.511544,-0.008789026124075736,-0.0045165828693166975,0.3201280695887308,0.9473227393873577,-0.0022222222222222222,-0.0044444444444444444,0.0,0.17,-0.01,-0.06
2025-01-03 10:55:28.521949,-0.008789026124075736,-0.0045165828693166975,0.3201280695887308,0.9473227393873577,-0.0011111111111111111,0.0,0.0022222222222222222,0.16,-0.03,0.07
2025-01-03 10:55:28.535603,-0.008789026124075736,-0.0045165828693166975,0.3201280695887308,0.9473227393873577,-0.0022222222222222222,-0.0011111111111111111,-0.0011111111111111111,0.08,-0.08,0.02
2025-01-03 10:55:28.548517,-0.008789026124075736,-0.0045165828693166975,0.3201280695887308,0.9473227393873577,0.0,0.0022222222222222222,-0.0022222222222222222,-0.04,-0.03,0.08
2025-01-03 10:55:28.561204,-0.008789026124075736,-0.0045165828693166975,0.3201280695887308,0.9473227393873577,0.0011111111111111111,0.0011111111111111111,0.0,-0.08,-0.11,0.0
2025-01-03 10:55:28.573641,-0.008789026124075736,-0.0045165828693166975,0.3201280695887308,0.9473227393873577,0.0011111111111111111,0.0,0.0,-0.08,-0.04,0.06
2025-01-03 10:55:28.585313,-0.008789026124075736,-0.0045165828693166975,0.3201280695887308,0.9473227393873577,0.0011111111111111111,0.0,0.0,-0.16,0.0,0.06
2025-01-03 10:55:28.599302,-0.008789026124075736,-0.0045165828693166975,0.3201280695887308,0.9473227393873577,0.0011111111111111111,-0.005555555555555556,0.0,-0.01,-0.14,-0.05
2025-01-03 10:55:28.611344,-0.008789026124075736,-0.0045165828693166975,0.3201280695887308,0.9473227393873577,0.0011111111111111111,-0.0033333333333333335,0.0,0.04,-0.06,0.03
2025-01-03 10:55:28.623101,-0.008789026124075736,-0.0045165828693166975,0.3201280695887308,0.9473227393873577,-0.0033333333333333335,-0.0044444444444444444,0.0,0.1,-0.01,-0.02
2025-01-03 10:55:28.637307,-0.008789026124075736,-0.0045165828693166975,0.3201280695887308,0.9473227393873577,0.005555555555555556,-0.0033333333333333335,0.0,0.14,0.08,0.06
2025-01-03 10:55:28.649624,-0.008789026124075736,-0.0045165828693166975,0.3201280695887308,0.9473227393873577,0.0,-0.0022222222222222222,0.0,0.12,-0.08,0.0
2025-01-03 10:55:28.661875,-0.008789023684842249,-0.0045776165025220045,0.32012798074303883,0.9473224764752538,0.005555555555555556,-0.013333333333333334,-0.0022222222222222222,0.0,-0.01,0.04
2025-01-03 10:55:28.671925,-0.008850056263731216,-0.004516580438042138,0.3201278972639326,0.9473222294439463,0.0,0.017777777777777778,0.0,0.09,0.0,0.34
2025-01-03 10:55:28.685872,-0.008850056263731216,-0.004516580438042138,0.3201278972639326,0.9473222294439463,-0.005555555555555556,0.006666666666666667,-0.0011111111111111111,0.01,-0.08,-0.23
2025-01-03 10:55:28.699441,-0.008850058686933155,-0.004455546787214623,0.3201279849169959,0.9473224888268242,0.008888888888888889,-0.005555555555555556,-0.0011111111111111111,-0.14,-0.03,-0.12
2025-01-03 10:55:28.711254,-0.008850058686933155,-0.004455546787214623,0.3201279849169959,0.9473224888268242,-0.0044444444444444444,-0.0011111111111111111,-0.0011111111111111111,-0.14,-0.01,0.26
2025-01-03 10:55:28.722384,-0.008789028530569827,-0.004455549185636093,0.3201281572419357,0.9473229987706547,0.011111111111111112,0.0,0.0,-0.18,-0.04,0.13
2025-01-03 10:55:28.736098,-0.008789028530569827,-0.004455549185636093,0.3201281572419357,0.9473229987706547,0.0,0.0011111111111111111,0.0022222222222222222,-0.08,-0.15,-0.05
2025-01-03 10:55:28.749413,-0.008789028530569827,-0.004455549185636093,0.3201281572419357,0.9473229987706547,0.005555555555555556,-0.011111111111111112,0.0,0.1,0.01,0.07
2025-01-03 10:55:28.762378,-0.008789028530569827,-0.004455549185636093,0.3201281572419357,0.9473229987706547,0.0,-0.0011111111111111111,0.0,0.21,0.01,0.08
2025-01-03 10:55:28.772317,-0.008789028530569827,-0.004455549185636093,0.3201281572419357,0.9473229987706547,0.0011111111111111111,-0.0022222222222222222,0.0044444444444444444,0.28,-0.05,0.1
2025-01-03 10:55:28.786289,-0.008789028530569827,-0.004455549185636093,0.3201281572419357,0.9473229987706547,0.0011111111111111111,0.0022222222222222222,0.0033333333333333335,0.19,-0.01,0.0
2025-01-03 10:55:28.800275,-0.008789028530569827,-0.004455549185636093,0.3201281572419357,0.9473229987706547,0.0,0.0044444444444444444,0.0,0.04,0.0,0.12
2025-01-03 10:55:28.813403,-0.008789028530569827,-0.004455549185636093,0.3201281572419357,0.9473229987706547,0.0,0.0077777777777777776,-0.0033333333333333335,-0.01,-0.05,0.08
2025-01-03 10:55:28.825200,-0.008789028530569827,-0.004455549185636093,0.3201281572419357,0.9473229987706547,-0.0011111111111111111,0.0033333333333333335,0.0011111111111111111,-0.09,0.0,0.02
2025-01-03 10:55:28.839095,-0.008789028530569827,-0.004455549185636093,0.3201281572419357,0.9473229987706547,0.0022222222222222222,0.0033333333333333335,0.0,-0.18,-0.09,-0.04
2025-01-03 10:55:28.851116,-0.008789028530569827,-0.004455549185636093,0.3201281572419357,0.9473229987706547,0.0,-0.0011111111111111111,0.0,-0.14,-0.05,0.01
2025-01-03 10:55:28.862921,-0.008789028530569827,-0.004455549185636093,0.3201281572419357,0.9473229987706547,0.0,-0.0022222222222222222,0.0,-0.01,-0.19,0.08
2025-01-03 10:55:28.873909,-0.008789028530569827,-0.004455549185636093,0.3201281572419357,0.9473229987706547,0.006666666666666667,-0.0077777777777777776,0.0,0.02,0.0,0.07
2025-01-03 10:55:28.887530,-0.008789028530569827,-0.004455549185636093,0.3201281572419357,0.9473229987706547,0.0,-0.006666666666666667,0.0,0.1,-0.11,-0.08
2025-01-03 10:55:28.900768,-0.008789028530569827,-0.004455549185636093,0.3201281572419357,0.9473229987706547,0.0,0.0,0.0011111111111111111,0.21,-0.05,0.01
2025-01-03 10:55:28.914019,-0.008789028530569827,-0.004455549185636093,0.3201281572419357,0.9473229987706547,0.0,0.0,0.0,0.13,0.1,0.05
2025-01-03 10:55:28.925668,-0.008789028530569827,-0.004455549185636093,0.3201281572419357,0.9473229987706547,-0.0011111111111111111,0.0044444444444444444,0.0,0.1,0.02,0.09
2025-01-03 10:55:28.939623,-0.008789028530569827,-0.004455549185636093,0.3201281572419357,0.9473229987706547,-0.0011111111111111111,0.0033333333333333335,0.0,-0.02,0.0,0.01
2025-01-03 10:55:28.951704,-0.008789028530569827,-0.004455549185636093,0.3201281572419357,0.9473229987706547,-0.0011111111111111111,0.0044444444444444444,-0.0011111111111111111,-0.08,-0.06,0.1
2025-01-03 10:55:28.964321,-0.008789028530569827,-0.004455549185636093,0.3201281572419357,0.9473229987706547,0.0,0.0077777777777777776,0.0,-0.02,-0.14,0.03
2025-01-03 10:55:28.974111,-0.008789028530569827,-0.004455549185636093,0.3201281572419357,0.9473229987706547,0.0,0.0044444444444444444,0.0011111111111111111,-0.12,-0.07,0.01
2025-01-03 10:55:28.987039,-0.008789028530569827,-0.004455549185636093,0.3201281572419357,0.9473229987706547,0.0011111111111111111,0.0,0.0,-0.11,-0.1,-0.05
2025-01-03 10:55:29.000284,-0.008789028530569827,-0.004455549185636093,0.3201281572419357,0.9473229987706547,0.0011111111111111111,0.0,-0.0011111111111111111,-0.04,0.01,0.05
2025-01-03 10:55:29.012602,-0.008789028530569827,-0.004455549185636093,0.3201281572419357,0.9473229987706547,0.0033333333333333335,-0.0022222222222222222,0.0,0.07,-0.02,0.03
2025-01-03 10:55:29.027074,-0.008789028530569827,-0.004455549185636093,0.3201281572419357,0.9473229987706547,-0.0011111111111111111,-0.0022222222222222222,-0.0011111111111111111,0.07,0.03,0.0
2025-01-03 10:55:29.039270,-0.008789028530569827,-0.004455549185636093,0.3201281572419357,0.9473229987706547,-0.0011111111111111111,0.0022222222222222222,0.0011111111111111111,0.07,0.09,0.07
2025-01-03 10:55:29.051156,-0.008789028530569827,-0.004455549185636093,0.3201281572419357,0.9473229987706547,0.0,-0.0011111111111111111,0.0,0.2,-0.02,0.07
2025-01-03 10:55:29.063924,-0.008789028530569827,-0.004455549185636093,0.3201281572419357,0.9473229987706547,-0.0033333333333333335,0.006666666666666667,0.0,0.08,-0.04,0.03
2025-01-03 10:55:29.077525,-0.008789028530569827,-0.004455549185636093,0.3201281572419357,0.9473229987706547,-0.0022222222222222222,0.0033333333333333335,0.0,0.0,-0.04,0.04
2025-01-03 10:55:29.090430,-0.008789028530569827,-0.004455549185636093,0.3201281572419357,0.9473229987706547,-0.0011111111111111111,0.005555555555555556,0.0,-0.13,-0.11,-0.04
2025-01-03 10:55:29.103154,-0.008789028530569827,-0.004455549185636093,0.3201281572419357,0.9473229987706547,0.0011111111111111111,0.0011111111111111111,-0.0022222222222222222,-0.15,-0.1,-0.03
2025-01-03 10:55:29.116407,-0.008789028530569827,-0.004455549185636093,0.3201281572419357,0.9473229987706547,-0.0011111111111111111,-0.0011111111111111111,0.0011111111111111111,-0.15,-0.03,0.05
2025-01-03 10:55:29.129373,-0.008789028530569827,-0.004455549185636093,0.3201281572419357,0.9473229987706547,0.0033333333333333335,-0.0011111111111111111,0.0,-0.11,-0.03,0.04
2025-01-03 10:55:29.142166,-0.008789028530569827,-0.004455549185636093,0.3201281572419357,0.9473229987706547,0.005555555555555556,-0.0044444444444444444,0.0,0.1,-0.1,-0.07
2025-01-03 10:55:29.154026,-0.008789028530569827,-0.004455549185636093,0.3201281572419357,0.9473229987706547,0.0,-0.0033333333333333335,0.0,0.09,-0.05,-0.03
2025-01-03 10:55:29.167874,-0.008789028530569827,-0.004455549185636093,0.3201281572419357,0.9473229987706547,0.0,-0.0011111111111111111,0.0,0.16,0.05,0.1
2025-01-03 10:55:29.180814,-0.008789028530569827,-0.004455549185636093,0.3201281572419357,0.9473229987706547,-0.0033333333333333335,0.0,0.0,0.17,-0.01,0.05
2025-01-03 10:55:29.193601,-0.008789028530569827,-0.004455549185636093,0.3201281572419357,0.9473229987706547,-0.0022222222222222222,0.0022222222222222222,0.0,0.03,0.0,-0.01
2025-01-03 10:55:29.206387,-0.008789028530569827,-0.004455549185636093,0.3201281572419357,0.9473229987706547,-0.0011111111111111111,0.006666666666666667,0.0,0.0,0.0,0.0
2025-01-03 10:55:29.220906,-0.008789028530569827,-0.004455549185636093,0.3201281572419357,0.9473229987706547,0.0,0.0033333333333333335,0.0,-0.11,-0.04,0.07
2025-01-03 10:55:29.235493,-0.008789028530569827,-0.004455549185636093,0.3201281572419357,0.9473229987706547,0.0,0.0022222222222222222,-0.0011111111111111111,-0.11,-0.09,0.01
2025-01-03 10:55:29.248756,-0.008789028530569827,-0.004455549185636093,0.3201281572419357,0.9473229987706547,0.0022222222222222222,0.0,0.0011111111111111111,-0.08,-0.09,0.0
2025-01-03 10:55:29.262555,-0.008789028530569827,-0.004455549185636093,0.3201281572419357,0.9473229987706547,0.0011111111111111111,-0.0033333333333333335,0.0,0.04,-0.13,0.0
2025-01-03 10:55:29.273250,-0.008789028530569827,-0.004455549185636093,0.3201281572419357,0.9473229987706547,-0.0022222222222222222,-0.0011111111111111111,0.0011111111111111111,0.0,0.09,0.08
2025-01-03 10:55:29.285999,-0.008789028530569827,-0.004455549185636093,0.3201281572419357,0.9473229987706547,0.0,-0.0011111111111111111,0.0022222222222222222,0.06,-0.04,0.02
2025-01-03 10:55:29.300031,-0.008789028530569827,-0.004455549185636093,0.3201281572419357,0.9473229987706547,0.0,0.0,0.0011111111111111111,0.12,0.05,0.03
2025-01-03 10:55:29.312113,-0.008789028530569827,-0.004455549185636093,0.3201281572419357,0.9473229987706547,-0.0011111111111111111,0.0,0.0,0.08,0.05,0.01
2025-01-03 10:55:29.323518,-0.008789028530569827,-0.004455549185636093,0.3201281572419357,0.9473229987706547,-0.0011111111111111111,0.0011111111111111111,0.0,0.06,-0.05,-0.03
2025-01-03 10:55:29.336262,-0.008789028530569827,-0.004455549185636093,0.3201281572419357,0.9473229987706547,0.0,0.006666666666666667,-0.0022222222222222222,-0.01,0.0,0.07
2025-01-03 10:55:29.349714,-0.008789028530569827,-0.004455549185636093,0.3201281572419357,0.9473229987706547,-0.0011111111111111111,0.005555555555555556,-0.0022222222222222222,0.0,-0.14,-0.04
2025-01-03 10:55:29.362778,-0.008789028530569827,-0.004455549185636093,0.3201281572419357,0.9473229987706547,0.0,0.0011111111111111111,0.0,-0.12,-0.07,0.05
2025-01-03 10:55:29.373980,-0.008789028530569827,-0.004455549185636093,0.3201281572419357,0.9473229987706547,0.0,-0.0011111111111111111,0.0,-0.11,-0.08,0.01
2025-01-03 10:55:29.386218,-0.008789028530569827,-0.004455549185636093,0.3201281572419357,0.9473229987706547,0.0,-0.005555555555555556,0.0,-0.1,-0.05,0.01
2025-01-03 10:55:29.399991,-0.008789028530569827,-0.004455549185636093,0.3201281572419357,0.9473229987706547,0.0022222222222222222,-0.005555555555555556,0.0,-0.1,-0.05,0.02
2025-01-03 10:55:29.412880,-0.008789028530569827,-0.004455549185636093,0.3201281572419357,0.9473229987706547,0.0,-0.0033333333333333335,0.0,0.04,-0.05,0.01
2025-01-03 10:55:29.423837,-0.008789028530569827,-0.004455549185636093,0.3201281572419357,0.9473229987706547,0.0011111111111111111,0.0,0.0011111111111111111,0.06,0.04,0.07
2025-01-03 10:55:29.435786,-0.008789028530569827,-0.004455549185636093,0.3201281572419357,0.9473229987706547,-0.0011111111111111111,-0.0033333333333333335,0.0022222222222222222,0.2,0.02,-0.03
2025-01-03 10:55:29.449041,-0.008789028530569827,-0.004455549185636093,0.3201281572419357,0.9473229987706547,-0.0011111111111111111,0.0044444444444444444,0.0,0.18,0.0,0.05
2025-01-03 10:55:29.464054,-0.008789028530569827,-0.004455549185636093,0.3201281572419357,0.9473229987706547,0.0,0.0033333333333333335,-0.0011111111111111111,0.1,-0.09,-0.09
2025-01-03 10:55:29.473968,-0.008789028530569827,-0.004455549185636093,0.3201281572419357,0.9473229987706547,0.0,0.0044444444444444444,0.0,-0.03,-0.06,0.01
2025-01-03 10:55:29.486604,-0.008789028530569827,-0.004455549185636093,0.3201281572419357,0.9473229987706547,0.0,0.0,0.0,-0.08,-0.08,0.02
2025-01-03 10:55:29.500629,-0.008789028530569827,-0.004455549185636093,0.3201281572419357,0.9473229987706547,0.0,0.0033333333333333335,0.0,-0.1,-0.05,0.0
2025-01-03 10:55:29.513184,-0.008789028530569827,-0.004455549185636093,0.3201281572419357,0.9473229987706547,0.0,-0.0022222222222222222,0.0,-0.09,-0.09,0.0
2025-01-03 10:55:29.524493,-0.008789028530569827,-0.004455549185636093,0.3201281572419357,0.9473229987706547,0.0011111111111111111,-0.0011111111111111111,0.0,-0.04,-0.05,0.0
2025-01-03 10:55:29.537579,-0.008789028530569827,-0.004455549185636093,0.3201281572419357,0.9473229987706547,0.0011111111111111111,-0.0033333333333333335,0.0,0.0,-0.07,0.03
2025-01-03 10:55:29.550296,-0.008789028530569827,-0.004455549185636093,0.3201281572419357,0.9473229987706547,-0.0022222222222222222,-0.0044444444444444444,0.0,0.09,-0.11,-0.05
2025-01-03 10:55:29.563535,-0.008789028530569827,-0.004455549185636093,0.3201281572419357,0.9473229987706547,0.0022222222222222222,0.0,0.0,0.13,-0.05,0.0
2025-01-03 10:55:29.575320,-0.008789028530569827,-0.004455549185636093,0.3201281572419357,0.9473229987706547,-0.0033333333333333335,0.0044444444444444444,0.0011111111111111111,0.14,0.02,-0.03
2025-01-03 10:55:29.587554,-0.008789028530569827,-0.004455549185636093,0.3201281572419357,0.9473229987706547,0.0,0.0022222222222222222,0.0,0.07,0.05,0.05
2025-01-03 10:55:29.601718,-0.008789028530569827,-0.004455549185636093,0.3201281572419357,0.9473229987706547,0.0,0.0022222222222222222,0.0,0.09,-0.07,-0.02
2025-01-03 10:55:29.614298,-0.008789028530569827,-0.004455549185636093,0.3201281572419357,0.9473229987706547,0.0,0.0033333333333333335,0.0,-0.06,-0.08,0.08
2025-01-03 10:55:29.626265,-0.008789028530569827,-0.004455549185636093,0.3201281572419357,0.9473229987706547,0.0011111111111111111,0.0011111111111111111,0.0,-0.11,-0.15,-0.03
2025-01-03 10:55:29.642793,-0.008789028530569827,-0.004455549185636093,0.3201281572419357,0.9473229987706547,0.0011111111111111111,0.0,0.0022222222222222222,-0.11,-0.07,0.07
2025-01-03 10:55:29.654331,-0.008789028530569827,-0.004455549185636093,0.3201281572419357,0.9473229987706547,0.0,-0.0022222222222222222,0.0,-0.04,-0.06,0.0
2025-01-03 10:55:29.666598,-0.008789028530569827,-0.004455549185636093,0.3201281572419357,0.9473229987706547,0.0044444444444444444,-0.0044444444444444444,0.0,0.01,-0.06,0.0
2025-01-03 10:55:29.676761,-0.008789028530569827,-0.004455549185636093,0.3201281572419357,0.9473229987706547,-0.0011111111111111111,-0.0011111111111111111,0.0011111111111111111,-0.08,0.08,0.09
2025-01-03 10:55:29.689805,-0.008789028530569827,-0.004455549185636093,0.3201281572419357,0.9473229987706547,0.0,-0.0022222222222222222,0.0022222222222222222,0.14,0.02,0.01
2025-01-03 10:55:29.703345,-0.008789028530569827,-0.004455549185636093,0.3201281572419357,0.9473229987706547,0.0,-0.005555555555555556,0.0,0.09,0.02,-0.01
2025-01-03 10:55:29.715647,-0.008789028530569827,-0.004455549185636093,0.3201281572419357,0.9473229987706547,0.0,0.0022222222222222222,0.0,0.18,-0.05,-0.02
2025-01-03 10:55:29.726226,-0.008789028530569827,-0.004455549185636093,0.3201281572419357,0.9473229987706547,-0.0022222222222222222,0.005555555555555556,0.0,0.02,-0.03,0.02
2025-01-03 10:55:29.738657,-0.008789028530569827,-0.004455549185636093,0.3201281572419357,0.9473229987706547,0.0,0.006666666666666667,0.0,0.0,-0.1,0.02
2025-01-03 10:55:29.753079,-0.008789028530569827,-0.004455549185636093,0.3201281572419357,0.9473229987706547,-0.0011111111111111111,0.006666666666666667,0.0,-0.08,-0.07,0.05
2025-01-03 10:55:29.765991,-0.008789028530569827,-0.004455549185636093,0.3201281572419357,0.9473229987706547,0.0011111111111111111,0.0,0.0,-0.1,-0.1,0.02
2025-01-03 10:55:29.776307,-0.008789028530569827,-0.004455549185636093,0.3201281572419357,0.9473229987706547,0.0,-0.0033333333333333335,0.0,-0.11,-0.03,-0.01
2025-01-03 10:55:29.790234,-0.008789028530569827,-0.004455549185636093,0.3201281572419357,0.9473229987706547,0.0011111111111111111,-0.0033333333333333335,0.0,-0.11,0.0,0.05
2025-01-03 10:55:29.803683,-0.008789028530569827,-0.004455549185636093,0.3201281572419357,0.9473229987706547,0.0,-0.005555555555555556,0.0,-0.01,0.14,0.06
2025-01-03 10:55:29.818210,-0.008789028530569827,-0.004455549185636093,0.3201281572419357,0.9473229987706547,-0.0033333333333333335,-0.0033333333333333335,0.0011111111111111111,0.08,-0.05,-0.01
2025-01-03 10:55:29.826854,-0.008789028530569827,-0.004455549185636093,0.3201281572419357,0.9473229987706547,0.0011111111111111111,0.0,0.0,0.12,0.0,0.02
2025-01-03 10:55:29.839704,-0.008789028530569827,-0.004455549185636093,0.3201281572419357,0.9473229987706547,0.0,0.0,0.0011111111111111111,0.13,0.05,0.03
2025-01-03 10:55:29.853651,-0.008789028530569827,-0.004455549185636093,0.3201281572419357,0.9473229987706547,-0.0022222222222222222,0.005555555555555556,0.0,0.1,-1.29,0.01
2025-01-03 10:55:29.866686,-0.008789028530569827,-0.004455549185636093,0.3201281572419357,0.9473229987706547,0.0,0.0011111111111111111,-0.0022222222222222222,-0.02,-0.02,0.06
2025-01-03 10:55:29.880593,-0.008789028530569827,-0.004455549185636093,0.3201281572419357,0.9473229987706547,-0.0011111111111111111,0.0033333333333333335,0.0,-0.02,-0.1,-0.02
2025-01-03 10:55:29.890868,-0.008789028530569827,-0.004455549185636093,0.3201281572419357,0.9473229987706547,0.0033333333333333335,0.0033333333333333335,0.0,-0.07,-0.11,0.04
2025-01-03 10:55:29.905167,-0.008789028530569827,-0.004455549185636093,0.3201281572419357,0.9473229987706547,0.0,0.0,0.0,-0.09,-0.08,-0.05
2025-01-03 10:55:29.918129,-0.008789028530569827,-0.004455549185636093,0.3201281572419357,0.9473229987706547,0.0,-0.0033333333333333335,0.0,-0.07,-0.01,0.08
2025-01-03 10:55:29.930418,-0.008789028530569827,-0.004455549185636093,0.3201281572419357,0.9473229987706547,0.0,-0.0011111111111111111,0.0,-0.09,-0.07,0.02
2025-01-03 10:55:29.943701,-0.008789028530569827,-0.004455549185636093,0.3201281572419357,0.9473229987706547,0.0011111111111111111,-0.0044444444444444444,-0.0011111111111111111,0.05,0.0,0.05
2025-01-03 10:55:29.955813,-0.008789028530569827,-0.004455549185636093,0.3201281572419357,0.9473229987706547,0.0,-0.0044444444444444444,0.0,0.09,0.02,0.02
2025-01-03 10:55:29.968340,-0.008789028530569827,-0.004455549185636093,0.3201281572419357,0.9473229987706547,0.0,0.0,0.0,0.11,0.0,0.0
2025-01-03 10:55:29.978263,-0.008789028530569827,-0.004455549185636093,0.3201281572419357,0.9473229987706547,0.0,0.0022222222222222222,0.0,0.11,-0.04,0.06
2025-01-03 10:55:29.991866,-0.008789028530569827,-0.004455549185636093,0.3201281572419357,0.9473229987706547,0.0,0.0044444444444444444,0.0,0.04,-0.04,0.03
2025-01-03 10:55:30.004796,-0.008789028530569827,-0.004455549185636093,0.3201281572419357,0.9473229987706547,0.0,0.0011111111111111111,0.0,0.0,-0.01,0.06
2025-01-03 10:55:30.017077,-0.008789028530569827,-0.004455549185636093,0.3201281572419357,0.9473229987706547,0.0,0.0,-0.0011111111111111111,-0.07,-0.12,-0.03
2025-01-03 10:55:30.028060,-0.008789028530569827,-0.004455549185636093,0.3201281572419357,0.9473229987706547,0.0,0.0011111111111111111,0.0,-0.12,-0.03,0.02
2025-01-03 10:55:30.041910,-0.008789028530569827,-0.004455549185636093,0.3201281572419357,0.9473229987706547,0.0,0.0,0.0,-0.11,-0.06,0.08
2025-01-03 10:55:30.055246,-0.008789028530569827,-0.004455549185636093,0.3201281572419357,0.9473229987706547,0.0022222222222222222,-0.0011111111111111111,0.0,-0.05,-0.07,-0.01
2025-01-03 10:55:30.068577,-0.008789028530569827,-0.004455549185636093,0.3201281572419357,0.9473229987706547,0.0033333333333333335,-0.005555555555555556,0.0,-0.02,0.02,0.04
2025-01-03 10:55:30.078927,-0.008727995886203639,-0.004516585283769715,0.32012824072124535,0.9473232458025641,-0.0033333333333333335,-0.01,0.0,0.02,-0.03,0.02
2025-01-03 10:55:30.094119,-0.008727995886203639,-0.004516585283769715,0.32012824072124535,0.9473232458025641,-0.005555555555555556,-0.0033333333333333335,0.0033333333333333335,1.49,-0.31,0.08
2025-01-03 10:55:30.107207,-0.00817854309405541,-0.004943746198645434,0.3201838587419006,0.947307219125627,0.07,0.016666666666666666,0.011111111111111112,2.75,0.32,-0.17
2025-01-03 10:55:30.120471,-0.008422637497208625,-0.0054930244547012775,0.32018229210403226,0.9473025840157614,-0.07888888888888888,-0.08555555555555555,-0.0022222222222222222,5.1,0.87,-0.44
2025-01-03 10:55:30.131744,-0.008178665890826959,-0.005920377547837426,0.3199445268635442,0.9473824772941497,0.022222222222222223,-0.09666666666666666,-0.052222222222222225,6.57,0.44,-0.7
2025-01-03 10:55:30.143249,-0.008361772406948914,-0.005615204828024089,0.3199446055271986,0.9473827102238033,-0.021111111111111112,0.07444444444444444,0.0,4.71,0.46,1.24
2025-01-03 10:55:30.155534,-0.008605934252931942,-0.005004869565534888,0.3195792322578131,0.9475072577483367,-0.023333333333333334,0.07111111111111111,-0.022222222222222223,0.81,-0.61,-0.62
2025-01-03 10:55:30.168469,-0.008484048698710868,-0.004760833082729839,0.3195251434370604,0.947527856106385,0.034444444444444444,0.03222222222222222,-0.024444444444444446,0.82,0.15,-0.97
2025-01-03 10:55:30.178471,-0.008422998256458897,-0.0050660061977252785,0.3197077164299399,0.9474652314131266,0.005555555555555556,-0.058888888888888886,0.042222222222222223,1.04,0.56,1.45
2025-01-03 10:55:30.188765,-0.00823970899855379,-0.005371069569427656,0.32031105795859477,0.9472613604263321,0.014444444444444444,-0.08,0.13666666666666666,3.15,0.02,1.24
2025-01-03 10:55:30.202219,-0.008056894474694518,-0.0051881517450684395,0.32129918571812077,0.9469292490940209,0.05,0.025555555555555557,0.21444444444444444,4.93,0.17,-0.15
2025-01-03 10:55:30.215579,-0.008300805338981532,-0.0054321446703629135,0.32226656021928296,0.9465969853107689,-0.021111111111111112,-0.02666666666666667,0.17333333333333334,2.22,-0.08,-0.39
2025-01-03 10:55:30.227489,-0.008911314984190517,-0.0050660215321083075,0.3220280675108847,0.9466746260602392,-0.09666666666666666,0.11555555555555555,-0.05444444444444444,1.38,0.39,0.81
2025-01-03 10:55:30.238839,-0.009155456677761806,-0.004943946605991375,0.3218448204122533,0.9467352568584224,-0.04555555555555556,0.03888888888888889,-0.043333333333333335,-0.14,-0.32,-1.33
2025-01-03 10:55:30.250275,-0.008544650390127865,-0.00482162414871501,0.3218281536224588,0.9467472632261675,0.13333333333333333,-0.011111111111111112,-0.0044444444444444444,-0.37,-0.91,0.36
2025-01-03 10:55:30.263674,-0.008483591306995282,-0.005065741571802938,0.32219337057286396,0.946622310586308,0.0011111111111111111,-0.056666666666666664,0.07888888888888888,-0.18,-0.27,-0.91
2025-01-03 10:55:30.277517,-0.0082397417503478,-0.005187985546515281,0.32299787661363377,0.9463495988084639,0.034444444444444444,-0.06333333333333334,0.09777777777777778,1.44,0.51,2.88
2025-01-03 10:55:30.287270,-0.008666941416541268,-0.00524899268889119,0.3231792591590564,0.9462835191694071,0.008888888888888889,0.022222222222222223,0.08333333333333333,1.81,0.06,1.59
2025-01-03 10:55:30.299790,-0.008178847407412397,-0.0057374004201251145,0.32294240024342535,0.946365888447233,0.06222222222222222,-0.12,-0.05555555555555555,1.05,0.17,-4.52
2025-01-03 10:55:30.312177,-0.00805650051144667,-0.00567617081488288,0.3225041568370015,0.9465167419054162,0.02,0.0,-0.08333333333333333,0.47,0.54,-1.44
2025-01-03 10:55:30.325913,-0.008850061621153137,-0.005615211511352335,0.3224474175486346,0.946529349109261,-0.15,0.06444444444444444,-0.021111111111111112,0.5,-0.21,4.45
2025-01-03 10:55:30.335640,-0.008728176328708476,-0.005310149234948514,0.32257630697359646,0.9464883239809954,0.04555555555555556,0.051111111111111114,0.03333333333333333,-0.24,-0.64,-1.18
2025-01-03 10:55:30.346319,-0.009521556025801374,-0.005493205399500793,0.3227563350284466,0.9464182547184367,0.06555555555555556,0.008888888888888889,0.03111111111111111,-1.5,-0.79,-6.79
2025-01-03 10:55:30.358514,-0.008972133709417678,-0.005371073241011943,0.32244749923029653,0.9465295888819684,0.11444444444444445,-0.015555555555555555,-0.06444444444444444,-0.63,-0.85,-4.17
2025-01-03 10:55:30.370871,-0.008422861760227864,-0.005554205943338664,0.32226601517393566,0.9465953843432894,0.1,-0.07,-0.04,0.41,-0.27,3.02
2025-01-03 10:55:30.381041,-0.008972289834882697,-0.005554274659689289,0.3225751821588779,0.9464850236022176,-0.11666666666666667,0.03666666666666667,0.07222222222222222,0.59,0.83,4.07
2025-01-03 10:55:30.391043,-0.009033471724862244,-0.005615401342481935,0.32288557719271127,0.9463782371215479,-0.012222222222222223,-0.015555555555555555,0.06555555555555556,0.19,0.23,0.93
2025-01-03 10:55:30.404571,-0.008483683869712308,-0.005737167509014078,0.3228682566243029,0.9463885041997053,0.09888888888888889,-0.051111111111111114,-0.0011111111111111111,0.01,0.18,-2.07
2025-01-03 10:55:30.416954,-0.008667124761218002,-0.005493248088095917,0.32275884322056897,0.9464256094890587,-0.0033333333333333335,-0.034444444444444444,-0.03333333333333333,0.24,-0.22,1.63
2025-01-03 10:55:30.428715,-0.00891143642712467,-0.00500505333578235,0.32288697739376376,0.9463823411134796,-0.01,0.11555555555555555,0.03777777777777778,0.2,0.3,2.76
2025-01-03 10:55:30.439612,-0.00915519571079889,-0.005187944236119371,0.32299530467698484,0.9463420633062453,-0.057777777777777775,-0.02,0.017777777777777778,-0.06,0.53,4.09
2025-01-03 10:55:30.453409,-0.009582412886250028,-0.005187930543511162,0.3228113487603592,0.9464006000904008,-0.08555555555555555,0.02666666666666667,-0.035555555555555556,-0.94,-0.51,-3.05
2025-01-03 10:55:30.466845,-0.008788895341461688,-0.005065821620425835,0.32232052984902204,0.9465762350745092,0.15444444444444444,-0.025555555555555557,-0.10777777777777778,-0.86,0.0,-2.23
2025-01-03 10:55:30.478826,-0.008789043231508612,-0.005371081974810819,0.32244802355597224,0.9465311280155247,-0.03222222222222222,-0.02666666666666667,0.06333333333333334,-3.03,1.06,4.51
2025-01-03 10:55:30.488857,-0.008606092855334629,-0.00524910628055871,0.3229421084934434,0.9463650334891023,0.051111111111111114,0.016666666666666666,0.11,0.74,0.43,3.14
2025-01-03 10:55:30.502943,-0.00842280874813599,-0.005493136140088688,0.32317950957521785,0.946284252399278,0.02,-0.06777777777777778,0.057777777777777775,-0.05,-0.13,0.47
2025-01-03 10:55:30.516743,-0.008361619372665207,-0.005615102060475906,0.32305146963151055,0.946327798344336,0.0,-0.016666666666666666,-0.03333333333333333,0.15,0.04,-0.61
2025-01-03 10:55:30.529204,-0.008666973751646472,-0.005554187404224148,0.32244804457710075,0.9465311897220667,-0.03666666666666667,0.028888888888888888,-0.035555555555555556,0.29,-0.43,1.54
2025-01-03 10:55:30.539256,-0.008728336588724295,-0.005554396011006369,0.322521192551183,0.9465057026667666,-0.016666666666666666,-0.008888888888888889,0.023333333333333334,0.1,-0.02,4.48
2025-01-03 10:55:30.551556,-0.00903332691386615,-0.005432203346851942,0.32257522121474735,0.9464851381981243,-0.04,0.04888888888888889,0.012222222222222223,-0.78,0.2,4.0
2025-01-03 10:55:30.564786,-0.00946039420503223,-0.004882784105823086,0.32244685538829204,0.9465276989138053,-0.05333333333333334,0.13333333333333333,-0.024444444444444446,-0.96,-0.82,-4.3
2025-01-03 10:55:30.578586,-0.00897217789567377,-0.005126958797527869,0.3218997702162141,0.9467173560530331,0.05,-0.04888888888888889,-0.07555555555555556,-0.38,-0.48,-0.53
2025-01-03 10:55:30.588945,-0.009094057205126283,-0.004943749218894154,0.32213714046078207,0.9466364245067695,0.03111111111111111,-0.028888888888888888,-0.04888888888888889,-0.26,-0.01,5.2
2025-01-03 10:55:30.599909,-0.009399340233091089,-0.004882774147060306,0.32281240579752446,0.9464036990539638,-0.04777777777777778,0.021111111111111112,0.14666666666666667,-0.67,0.61,3.17
2025-01-03 10:55:30.612011,-0.008972276698771684,-0.0050659793605309505,0.32312403294760067,0.9463005301888177,0.06111111111111111,-0.057777777777777775,0.06666666666666667,-0.86,-0.3,-2.52
2025-01-03 10:55:30.626000,-0.008789022260592761,-0.005065894775202772,0.322996568076784,0.9463457649339636,0.034444444444444444,-0.012222222222222223,-0.02666666666666667,0.08,-0.13,-6.27
2025-01-03 10:55:30.638178,-0.008850240103043945,-0.004760818814051226,0.32294220955314146,0.9463653296392853,0.034444444444444444,0.08,-0.03888888888888889,-0.02,0.37,4.34
2025-01-03 10:55:30.650280,-0.008545067702565962,-0.004516678642784866,0.32330874014637073,0.9462441756634293,0.06555555555555556,0.02666666666666667,0.08333333333333333,-0.21,0.37,4.23
2025-01-03 10:55:30.662873,-0.008911230179596344,-0.005127009144425293,0.32330675521453306,0.9462383662622063,-0.1111111111111111,-0.09111111111111111,-0.0022222222222222222,-1.42,0.44,-5.12
2025-01-03 10:55:30.675714,-0.009765489579055802,-0.005371019268480691,0.32281046489766335,0.9463980088302454,-0.17444444444444446,-0.008888888888888889,-0.11,0.43,-0.28,-4.87
2025-01-03 10:55:30.686615,-0.00946022825338531,-0.005187867106695171,0.32195292926843555,0.946694196375868,0.07,0.024444444444444446,-0.18333333333333332,-0.73,0.23,-1.75
2025-01-03 10:55:30.699087,-0.00903304927516882,-0.0053710022717220005,0.32140565866918247,0.946883286857899,0.06888888888888889,-0.06,-0.12222222222222222,-0.2,0.13,1.4
2025-01-03 10:55:30.711878,-0.009033360533088576,-0.005432223563816779,0.3220270957606441,0.9466717693797555,0.017777777777777778,-0.015555555555555555,0.08777777777777777,-0.38,-0.28,-0.02
2025-01-03 10:55:30.725682,-0.009033351396295788,-0.005615326543643327,0.3220267700463282,0.9466708118685653,0.005555555555555556,-0.034444444444444444,0.0022222222222222222,0.26,0.08,-3.68
2025-01-03 10:55:30.736543,-0.008910974186989815,-0.005309964070329547,0.3217716158480158,0.9467604903327809,0.03333333333333333,0.04666666666666667,-0.05,0.32,0.28,-0.54
2025-01-03 10:55:30.747687,-0.008667189887944425,-0.005249143171571976,0.3218457202755701,0.9467379038866618,0.05555555555555555,-0.0044444444444444444,0.012222222222222223,-0.2,0.23,0.81
2025-01-03 10:55:30.759382,-0.008727859248974188,-0.004699616518678409,0.32268665628899673,0.9464539396772219,0.024444444444444446,0.023333333333333334,0.09111111111111111,-0.84,0.05,-1.53
2025-01-03 10:55:30.773470,-0.008361653261886056,-0.005370988956539949,0.3226865751503035,0.9464537016939203,0.021111111111111112,-0.15666666666666668,0.0011111111111111111,-0.38,0.2,-0.01
2025-01-03 10:55:30.782442,-0.008727851592277085,-0.00488271417749767,0.3226863732053773,0.9464531093807047,-0.03777777777777778,0.11777777777777777,0.0077777777777777776,0.32,0.21,2.05
2025-01-03 10:55:30.793418,-0.00884990461151573,-0.005004773642374413,0.32268583228333564,0.9464515228329271,-0.023333333333333334,-0.02,-0.0044444444444444444,0.18,0.3,2.81
2025-01-03 10:55:30.807272,-0.008910898553637707,-0.00573715386330099,0.32268438803481203,0.9464472867894516,-0.06333333333333334,-0.13444444444444445,-0.006666666666666667,0.41,-0.16,-0.97
2025-01-03 10:55:30.820998,-0.008849916215931546,-0.005248915824621469,0.3223200519747207,0.9465748316750507,-0.023333333333333334,0.1322222222222222,-0.016666666666666666,-0.07,-0.34,-1.88
2025-01-03 10:55:30.830804,-0.008728209365254307,-0.005066023617595157,0.32221130936487746,0.9466139793407624,0.03111111111111111,0.024444444444444446,-0.02,0.1,-0.1,1.42
2025-01-03 10:55:30.841191,-0.009155420847413904,-0.005004963396586268,0.32239288610693495,0.9465484433446322,-0.07444444444444444,0.043333333333333335,0.03222222222222222,-0.11,0.55,1.08
2025-01-03 10:55:30.855699,-0.009155054825541417,-0.005126830702303194,0.3225020646544057,0.9465106015633087,-0.012222222222222223,-0.022222222222222223,0.027777777777777776,-0.03,0.21,0.83
2025-01-03 10:55:30.869506,-0.008911440062521408,-0.005188167159687121,0.32270399733253896,0.9464437644483353,0.052222222222222225,-0.025555555555555557,0.024444444444444446,0.08,-0.01,-1.94
2025-01-03 10:55:30.883316,-0.008728001234775375,-0.005126937788259661,0.3228139757393494,0.9464083017232656,0.03888888888888889,0.0,0.014444444444444444,0.3,-0.24,0.46
2025-01-03 10:55:30.890742,-0.008300963360478954,-0.0045167006520253124,0.3229440966198099,0.9463708595898983,0.11777777777777777,0.08555555555555555,0.03777777777777778,0.68,-0.26,2.78
2025-01-03 10:55:30.903439,-0.008361651782338862,-0.0045775465961709096,0.32323582364428183,0.9462704323604504,-0.015555555555555555,-0.011111111111111112,0.05555555555555555,-0.27,0.01,1.51
2025-01-03 10:55:30.918749,-0.008727970005107874,-0.004699676156596547,0.32354523774179605,0.9461607763579178,-0.07888888888888888,-0.005555555555555556,0.06555555555555556,0.21,0.4,-0.43
2025-01-03 10:55:30.930591,-0.008728129245775705,-0.004699761901571534,0.32367321251992004,0.9461170030683161,-0.0011111111111111111,-0.04,0.0077777777777777776,-0.13,0.24,-0.15
2025-01-03 10:55:30.943574,-0.008727959291832217,-0.004638635707547192,0.32372794464250404,0.9460985802985398,0.0022222222222222222,0.012222222222222223,0.014444444444444444,-0.3,-0.06,-0.15
2025-01-03 10:55:30.957305,-0.008666926742366783,-0.004699671543396072,0.32372802423600994,0.9460988129114613,0.016666666666666666,-0.01,0.0,0.08,-0.16,-0.05
2025-01-03 10:55:30.970832,-0.008972237290784823,-0.005065957109762859,0.32367193437436675,0.9461132669690852,-0.025555555555555557,-0.011111111111111112,-0.013333333333333334,0.23,0.09,0.06
2025-01-03 10:55:30.981644,-0.00897240082562514,-0.005066049445761133,0.3237999073465399,0.946069474810814,-0.0033333333333333335,0.0011111111111111111,0.035555555555555556,0.68,0.2,0.59
2025-01-03 10:55:30.992395,-0.008849983733438097,-0.0048217152754593765,0.32409250775556064,0.9459717095486694,0.03222222222222222,0.04666666666666667,0.05555555555555555,0.46,-0.48,-0.26
2025-01-03 10:55:31.007325,-0.008850139230682636,-0.004943870880588231,0.32422027305783563,0.9459272951525483,0.0,-0.028888888888888888,0.03,-0.11,-0.33,-1.98
2025-01-03 10:55:31.018766,-0.008544834560299489,-0.004821728073311854,0.32409336796564486,0.9459742203577268,0.06222222222222222,0.0011111111111111111,-0.022222222222222223,-0.63,0.54,0.9
2025-01-03 10:55:31.031231,-0.008483993608680131,-0.004943909944626551,0.32367351155993335,0.9461178771809403,-0.06222222222222222,-0.042222222222222223,-0.034444444444444444,-0.46,0.48,-0.47
2025-01-03 10:55:31.041736,-0.008545017214377703,-0.005127010328626622,0.3236730449131783,0.9461165131433484,-0.022222222222222223,-0.034444444444444444,0.0033333333333333335,-0.24,0.65,-0.56
2025-01-03 10:55:31.053690,-0.008483972732904691,-0.005127005104776936,0.3238558224517431,0.9460545133814584,0.016666666666666666,-0.0022222222222222222,0.03777777777777778,0.41,0.28,-0.28
2025-01-03 10:55:31.066487,-0.00860584049665032,-0.005371021019186015,0.32409229104406523,0.945971077004137,-0.042222222222222223,-0.03666666666666667,0.04777777777777778,0.54,0.0,-0.99
2025-01-03 10:55:31.080149,-0.008483620791478661,-0.005492991879374672,0.32396445439689736,0.946015268114527,0.024444444444444446,0.012222222222222223,0.015555555555555555,0.19,-0.44,0.04
2025-01-03 10:55:31.090775,-0.008849802992409783,-0.0055540142917882085,0.3237807232740269,0.9460744564506486,-0.015555555555555555,-0.051111111111111114,-0.044444444444444446,-0.07,-0.19,0.6
2025-01-03 10:55:31.102619,-0.009216171486276898,-0.005187911101546598,0.3237256527365077,0.9460918821773391,-0.03666666666666667,0.09333333333333334,0.008888888888888889,-0.16,-0.27,0.86
2025-01-03 10:55:31.115029,-0.00854497272757646,-0.005798374350855455,0.3238544663751478,0.9460505519816795,0.08777777777777777,-0.15555555555555556,0.014444444444444444,-0.61,-0.06,-1.44
2025-01-03 10:55:31.129339,-0.008423066679652778,-0.005737451216575082,0.32398288359128224,0.946008046869119,0.03111111111111111,-0.008888888888888889,0.034444444444444444,0.08,0.29,-0.64
2025-01-03 10:55:31.140085,-0.008544627202591349,-0.005676073784578539,0.32414653623544754,0.9459512643783095,-0.01888888888888889,0.02,0.03,0.71,0.02,1.97
2025-01-03 10:55:31.152647,-0.007995663879640923,-0.005798382202793035,0.32422111853933266,0.9459297618830154,0.056666666666666664,-0.025555555555555557,-0.0044444444444444444,0.27,0.32,1.18
2025-01-03 10:55:31.165402,-0.008056378156291417,-0.006042283617218562,0.3241471544550281,0.9459530685178837,-0.021111111111111112,-0.03888888888888889,-0.013333333333333334,0.05,-0.08,-1.19
2025-01-03 10:55:31.180546,-0.00842271209267794,-0.006164448705510667,0.32409131313130335,0.9459682226406912,-0.08222222222222222,0.0,-0.012222222222222223,0.53,0.08,-0.52
2025-01-03 10:55:31.190169,-0.008361697570794985,-0.005859291728440282,0.3240920737293531,0.945970442698916,0.01,0.03333333333333333,-0.0022222222222222222,0.25,-0.25,1.54
2025-01-03 10:55:31.202047,-0.008361697570794985,-0.005859291728440282,0.3240920737293531,0.945970442698916,0.023333333333333334,0.022222222222222223,0.0044444444444444444,-0.54,0.07,-0.98
2025-01-03 10:55:31.214434,-0.008484093011723209,-0.005859517475722504,0.32398248709515676,0.9460068891273238,-0.02666666666666667,-0.0044444444444444444,-0.01888888888888889,-0.45,0.05,-0.21
2025-01-03 10:55:31.229545,-0.008667028462241794,-0.005920434935475028,0.32385389451165464,0.9460488814418859,-0.034444444444444444,-0.0033333333333333335,-0.028888888888888888,-0.23,0.12,-0.85
2025-01-03 10:55:31.239823,-0.008728222144255034,-0.006103651849129394,0.32379873059631437,0.9460660366150561,-0.021111111111111112,-0.022222222222222223,-0.014444444444444444,0.12,-0.54,0.17
2025-01-03 10:55:31.250367,-0.008361682230020963,-0.006164451863008155,0.3240914791343892,0.9459687071758752,0.03,0.0077777777777777776,0.027777777777777776,0.0,-0.28,-0.46
2025-01-03 10:55:31.263675,-0.008056818579900687,-0.006530905970071011,0.3241648748322163,0.9459437450856125,0.03888888888888889,-0.09,0.01888888888888889,-0.16,-0.24,-0.51
2025-01-03 10:55:31.274929,-0.008300773704842241,-0.006713861084798871,0.3242184552950146,0.94592199174739,-0.06555555555555556,-0.025555555555555557,0.01,0.64,0.22,-1.29
2025-01-03 10:55:31.284863,-0.008544744542695978,-0.006408558407021984,0.3242730553953124,0.9459032208764449,-0.03222222222222222,0.0811111111111111,0.012222222222222223,0.0,0.27,2.42
2025-01-03 10:55:31.294992,-0.008361787031772282,-0.0070190183113416965,0.32421761104214863,0.9459195286015097,-0.0011111111111111111,-0.12333333333333334,-0.014444444444444444,-0.17,0.61,-0.41
2025-01-03 10:55:31.308506,-0.008666927936961258,-0.007202095046207242,0.32421634648688874,0.9459158392044054,-0.07666666666666666,-0.02,-0.0011111111111111111,-0.83,0.09,-1.52
2025-01-03 10:55:31.322393,-0.007812665184028476,-0.0069581549295253614,0.32416456869043153,0.9459428517349479,0.016666666666666666,0.10777777777777778,-0.008888888888888889,-0.21,-0.34,1.78
2025-01-03 10:55:31.333128,-0.007995581223095776,-0.007141091626734395,0.3244008717614813,0.9458589482008797,-0.052222222222222225,-0.021111111111111112,0.06111111111111111,-0.49,0.09,1.19
2025-01-03 10:55:31.345779,-0.008422916248099955,-0.007202203748375323,0.3248926318017105,0.9456859735366716,-0.08888888888888889,0.015555555555555555,0.10444444444444445,0.02,0.33,-1.72
2025-01-03 10:55:31.356054,-0.008178782827864942,-0.007080140358450249,0.3250760995612589,0.9456259877023251,0.052222222222222225,0.008888888888888889,0.03888888888888889,0.31,0.0,-1.08
2025-01-03 10:55:31.370645,-0.008056552537335348,-0.007202069692466447,0.32513072247261665,0.9456073368252769,0.016666666666666666,-0.025555555555555557,0.01,0.32,0.19,-1.07
2025-01-03 10:55:31.382863,-0.00805641167810843,-0.006591609554815988,0.32536917163633367,0.9455297705852712,0.07333333333333333,0.04888888888888889,0.025555555555555557,0.3,-0.5,2.81
2025-01-03 10:55:31.393173,-0.007446366429417805,-0.007141187477392486,0.32544283443980115,0.9455054291648461,0.07555555555555556,-0.15222222222222223,0.014444444444444444,-0.71,0.14,2.7
2025-01-03 10:55:31.405504,-0.007507381244035416,-0.0072022031446843824,0.3256250320075524,0.9454417517895007,-0.01,0.0,0.035555555555555556,-0.64,0.33,1.16
2025-01-03 10:55:31.419029,-0.008361505264333949,-0.0069577489060881036,0.32573250799817727,0.9453993908360063,-0.1511111111111111,0.10444444444444445,0.025555555555555557,0.29,0.73,-1.77
2025-01-03 10:55:31.432329,-0.008606146494234091,-0.006714014995501773,0.3255686907818769,0.9454553843665678,-0.13666666666666666,0.008888888888888889,-0.011111111111111112,0.62,-0.24,1.05
2025-01-03 10:55:31.445237,-0.008606146494234091,-0.006714014995501773,0.3255686907818769,0.9454553843665678,0.0,-0.0011111111111111111,-0.0077777777777777776,0.08,-0.73,1.78
2025-01-03 10:55:31.458912,-0.00860597192301384,-0.006774914067053448,0.3256231220516229,0.9454362062942154,-0.011111111111111112,-0.01,0.017777777777777778,-0.11,-0.65,0.22
2025-01-03 10:55:31.472096,-0.008361678523328838,-0.006835824778195838,0.3256782233611874,0.9454189804844065,0.044444444444444446,0.013333333333333334,0.006666666666666667,-0.2,-0.14,-1.71
2025-01-03 10:55:31.483810,-0.008544935037692485,-0.00659180702907706,0.3258061659371606,0.945374991420135,-0.016666666666666666,0.056666666666666664,0.025555555555555557,0.41,0.05,1.09
2025-01-03 10:55:31.496500,-0.008483738874701217,-0.006530647910741225,0.32586102051820004,0.9453570606492602,0.014444444444444444,0.013333333333333334,0.011111111111111112,0.17,0.22,-0.29
2025-01-03 10:55:31.510159,-0.008117710588518227,-0.006713895975466204,0.3258070610639872,0.9453775887636002,0.056666666666666664,-0.06333333333333334,-0.014444444444444444,-0.09,0.01,0.03
2025-01-03 10:55:31.523447,-0.008178595222216428,-0.006713772197341843,0.3256789858637825,0.9454211939711378,0.022222222222222223,-0.014444444444444444,-0.015555555555555555,-0.02,0.03,-0.36
2025-01-03 10:55:31.533816,-0.00817858845859981,-0.006835835129575961,0.32567871653051184,0.9454204121172467,-0.0022222222222222222,-0.023333333333333334,0.0,-0.13,-0.3,-0.78
2025-01-03 10:55:31.544914,-0.008483899581990195,-0.006958018362207786,0.32562305230156613,0.9454360037771807,-0.06888888888888889,-0.0044444444444444444,-0.015555555555555555,0.09,0.03,-0.11
2025-01-03 10:55:31.559138,-0.00884993144679658,-0.006835809117525634,0.32549437521218044,0.9454778485677643,-0.07,0.04666666666666667,-0.016666666666666666,0.37,-0.44,-1.3
2025-01-03 10:55:31.571807,-0.008300708860625656,-0.006591739389320374,0.32513144191582993,0.9456094292475977,0.07222222222222222,-0.0033333333333333335,-0.04555555555555556,-0.55,-0.23,1.04
2025-01-03 10:55:31.583503,-0.008422766106996223,-0.006652764533786872,0.32513097863745566,0.9456080818528442,-0.01888888888888889,0.006666666666666667,-0.0077777777777777776,-0.27,-0.01,-0.7
2025-01-03 10:55:31.595860,-0.008422766106996223,-0.006652764533786872,0.32513097863745566,0.9456080818528442,0.008888888888888889,-0.0044444444444444444,0.0022222222222222222,-0.52,0.35,-0.87
2025-01-03 10:55:31.609363,-0.008239671704343579,-0.006713806573909582,0.32513134199287586,0.945609138632556,0.025555555555555557,-0.022222222222222223,-0.0033333333333333335,0.01,0.48,-0.92
2025-01-03 10:55:31.623390,-0.007995691164310103,-0.006469795903945579,0.32544294113054556,0.9455057391322733,-0.03,0.0022222222222222222,0.03,0.12,-0.12,0.67
2025-01-03 10:55:31.633849,-0.0033111883389272487,0.893856660353055,0.1459659388416359,0.4239142029613389,0.12444444444444444,-0.024444444444444446,0.021111111111111112,0.27,-0.23,0.35
2025-01-03 10:55:31.644525,-0.007812278398311947,-0.006591609898575706,0.3255522888796557,0.9454687864707061,-0.10111111111111111,-0.015555555555555555,0.0044444444444444444,0.38,-0.13,-0.01
2025-01-03 10:55:31.657055,-0.008239490688817852,-0.006469526022331054,0.32555143210484755,0.9454662982257581,-0.07,0.05444444444444444,0.0044444444444444444,0.38,0.2,2.09
2025-01-03 10:55:31.670492,-0.00799553858523518,-0.006347603151637089,0.32549776545846726,0.9454876963654821,0.056666666666666664,0.0,-0.011111111111111112,0.15,0.05,-0.09
2025-01-03 10:55:31.683420,-0.008300557594283524,-0.0060423176605446235,0.32536965099356957,0.9455311636076495,-0.10666666666666667,-0.07666666666666666,-0.025555555555555557,0.2,-0.04,-0.93
2025-01-03 10:55:31.696362,-0.00799572446628266,-0.00610360646281119,0.3252611884032083,0.9455707132187094,0.056666666666666664,-0.03888888888888889,-0.016666666666666666,-0.5,-0.36,-2.16
2025-01-03 10:55:31.710661,-0.00787364799581799,-0.006347747221434659,0.32526100906755095,0.9455701918698628,-0.0011111111111111111,-0.04777777777777778,0.0044444444444444444,-0.54,-0.13,-0.24
2025-01-03 10:55:31.723867,-0.007812586308839449,-0.006347726375932052,0.3256261559192067,0.9454450150306488,-0.01,0.07333333333333333,0.04111111111111111,0.24,0.0,0.52
2025-01-03 10:55:31.734217,-0.007568312572836782,-0.006225547438946385,0.32568157974723444,0.9454287238164657,0.057777777777777775,-0.0022222222222222222,0.01,0.44,-0.36,0.01
2025-01-03 10:55:31.745333,-0.007629360695430013,-0.0058593490140902505,0.3256821493665164,0.9454303773776873,0.01,0.07777777777777778,-0.0044444444444444444,0.2,-0.29,-1.37
2025-01-03 10:55:31.757157,-0.007140986668971375,-0.005676168890720836,0.3255557512161822,0.9454788417866288,0.10222222222222223,0.005555555555555556,-0.022222222222222223,0.3,-0.05,1.08
2025-01-03 10:55:31.769987,-0.006835982651402309,-0.0052490581073267725,0.32550263821364744,0.9455018504720818,0.09444444444444444,0.07222222222222222,-0.015555555555555555,-0.26,0.59,0.11
2025-01-03 10:55:31.783370,-0.0073852761912447966,-0.005188003935998411,0.32550147047858263,0.9454984585006045,-0.056666666666666664,0.07,0.0044444444444444444,-1.38,0.47,-1.03
2025-01-03 10:55:31.794084,-0.007324372736856555,-0.0056153524315900255,0.3254462952743263,0.9455154838887074,-0.04888888888888889,-0.024444444444444446,0.008888888888888889,0.0,-0.61,-2.48
2025-01-03 10:55:31.806479,-0.007751485461622402,-0.005432143354995227,0.32513514215797273,0.9456201909993377,-0.07111111111111111,0.06555555555555556,-0.05555555555555555,0.48,-0.46,-1.41
2025-01-03 10:55:31.820279,-0.007140917107575095,-0.00549301315967315,0.3246981112162351,0.9457747991366126,0.11888888888888889,-0.05333333333333334,-0.10444444444444445,0.71,-0.54,3.05
2025-01-03 10:55:31.833936,-0.007018872777785991,-0.005676131898557367,0.32433295601004136,0.9458999157402372,0.0811111111111111,-0.04555555555555556,-0.07222222222222222,0.42,-0.09,0.06
2025-01-03 10:55:31.845334,-0.006835904369167862,-0.005676242020826886,0.3244613180937175,0.945857232223164,0.02666666666666667,-0.01,0.01888888888888889,0.14,0.5,0.39
2025-01-03 10:55:31.858174,-0.006652678538526575,-0.005615104821508669,0.3245164384343651,0.9458399936839114,0.04888888888888889,0.0044444444444444444,0.01888888888888889,0.22,0.37,-0.58
2025-01-03 10:55:31.871623,-0.0068358997471876775,-0.0054931337254186694,0.32464420317224335,0.9457955578787522,-0.03888888888888889,0.03111111111111111,0.016666666666666666,-0.2,0.37,-1.76
2025-01-03 10:55:31.885105,-0.006286758383289139,-0.0050660286001262,0.3244089398755512,0.9458824724838037,0.035555555555555556,0.04,-0.011111111111111112,-0.04,-0.13,1.6
2025-01-03 10:55:31.895044,-0.006347561144457507,-0.004760670858343131,0.3243359607850692,0.9459086790077159,-0.0022222222222222222,0.06888888888888889,-0.011111111111111112,0.05,0.63,2.06
2025-01-03 10:55:31.908077,-0.006469761727035091,-0.004455590623335487,0.3242815476956362,0.9459279928829231,-0.0022222222222222222,0.06888888888888889,-0.011111111111111112,0.12,0.22,0.38
2025-01-03 10:55:31.923319,-0.007202147552107071,-0.004577636156000257,0.3242797452910582,0.9459227352758931,-0.15222222222222223,0.03,-0.0022222222222222222,-0.06,0.19,-2.19
2025-01-03 10:55:31.934395,-0.0070801167651987264,-0.0038452358293751703,0.32409844847590724,0.9459890495156471,-0.12333333333333334,0.014444444444444444,-0.008888888888888889,0.36,-0.37,1.95
2025-01-03 10:55:31.946404,-0.007568371822829946,-0.0039062564246864235,0.3240972127357017,0.9459854425971075,-0.09666666666666666,0.021111111111111112,-0.0022222222222222222,-0.79,0.31,0.56
2025-01-03 10:55:31.959365,-0.008056621206448827,-0.00396727559408465,0.324095898532146,0.9459816066571998,-0.09666666666666666,0.021111111111111112,-0.0022222222222222222,-0.38,0.2,2.14
2025-01-03 10:55:31.972741,-0.007995438776885442,-0.004150304097925267,0.3239678551733429,0.9460251987917889,-0.0033333333333333335,-0.03777777777777778,-0.02666666666666667,0.43,-0.28,-0.6
2025-01-03 10:55:31.985332,-0.007751291099951246,-0.004211331385012881,0.32433355043418044,0.9459016493468063,0.0077777777777777776,-0.0033333333333333335,0.01888888888888889,0.2,-0.06,-2.57
2025-01-03 10:55:31.996018,-0.007812626357345368,-0.0034790601747553595,0.32459021069033334,0.9458160783861236,0.03777777777777778,0.14555555555555555,0.06333333333333334,0.99,0.16,0.66
2025-01-03 10:55:32.009365,-0.007873337984636922,-0.003784084922848753,0.32469889983153816,0.9457770962010368,-0.03,-0.04777777777777778,0.017777777777777778,0.12,-0.02,2.38
2025-01-03 10:55:32.023956,-0.007568174751148147,-0.0042113230470098555,0.32469911029119464,0.9457777092241264,0.023333333333333334,-0.10333333333333333,0.0,-0.33,0.2,-0.91
2025-01-03 10:55:32.035067,-0.007995385880869023,-0.004150276640451096,0.3246981136352916,0.9457748061827969,-0.07888888888888888,0.0011111111111111111,0.016666666666666666,-0.45,0.51,1.15
2025-01-03 10:55:32.046036,-0.007812423428947802,-0.004577591852899103,0.3248259178817203,0.9457304768089547,-0.07888888888888888,0.0011111111111111111,0.016666666666666666,-0.25,-0.06,-0.51
2025-01-03 10:55:32.060774,-0.0078737590508809,-0.004394656214445153,0.3248993754096049,0.9457056025918501,0.0022222222222222222,0.04,0.011111111111111112,-0.17,0.06,-3.54
2025-01-03 10:55:32.076727,-0.008178921266717706,-0.004455680988585019,0.3248984918114802,0.9457030306457025,-0.01888888888888889,-0.024444444444444446,0.006666666666666667,0.73,-0.19,1.36
2025-01-03 10:55:32.090086,-0.008483751342226065,-0.004333426944590292,0.3250070208442719,0.9456636208377744,-0.06,0.044444444444444446,0.022222222222222223,0.54,0.04,2.4
2025-01-03 10:55:32.100468,-0.00836201267495439,-0.004211524631911334,0.3250808723124604,0.9456398713362654,0.03,0.011111111111111112,0.014444444444444444,0.28,-0.07,0.66
2025-01-03 10:55:32.114296,-0.0077515264524050335,-0.003906281046881277,0.3253199684355813,0.9455641559106991,0.03777777777777778,-0.06111111111111111,0.012222222222222223,-0.6,-0.02,-2.77
2025-01-03 10:55:32.127613,-0.007568424631634089,-0.00360110526827751,0.32550329484277896,0.9455037578116424,0.05444444444444444,0.04888888888888889,0.042222222222222223,-0.15,-0.18,2.88
2025-01-03 10:55:32.137941,-0.007446187509944353,-0.003967231050380188,0.32574018639813945,0.9454216764675248,0.0033333333333333335,-0.08777777777777777,0.051111111111111114,-0.36,0.38,2.45
2025-01-03 10:55:32.148100,-0.007751325966163459,-0.003967214077170275,0.32592189495521945,0.9453565975583135,-0.06222222222222222,0.02666666666666667,0.035555555555555556,-0.28,0.49,1.6
2025-01-03 10:55:32.162369,-0.007873376684538575,-0.004272374945098451,0.3259211743832247,0.945354507494713,-0.04111111111111111,-0.05,0.0077777777777777776,0.17,0.56,-1.34
2025-01-03 10:55:32.175537,-0.008056633136685813,-0.004089351667863253,0.325866396339133,0.9453726564706557,-0.03111111111111111,0.0,-0.0022222222222222222,0.18,-0.7,-0.47
2025-01-03 10:55:32.186775,-0.008056787199073236,-0.004272538666175201,0.3258115914291889,0.9453907342912528,-0.014444444444444444,-0.03111111111111111,-0.013333333333333334,0.58,-0.49,1.98
2025-01-03 10:55:32.196990,-0.008605742704211114,-0.0039671863530051235,0.32591961730842095,0.9453499911030209,-0.08777777777777777,0.08777777777777777,0.02666666666666667,-0.32,-0.32,1.3
2025-01-03 10:55:32.210123,-0.008606068040068351,-0.003967336330527963,0.3259929744823054,0.9453246936494937,-0.005555555555555556,0.0033333333333333335,0.02,-0.07,-0.1,1.06
2025-01-03 10:55:32.224179,-0.008422797326898922,-0.004211398663449461,0.32604770521952203,0.945306413036308,0.021111111111111112,-0.057777777777777775,0.013333333333333334,-0.49,0.21,0.71
2025-01-03 10:55:32.236346,-0.004286608708814914,-0.0021274280258562904,-0.8707213630601671,0.49175340054382644,0.035555555555555556,-0.0022222222222222222,0.024444444444444446,-0.36,0.18,-0.42
2025-01-03 10:55:32.247744,-0.00799541462209905,-0.003967190461346857,0.32628615702092767,0.9452289026904428,0.06,-0.0022222222222222222,0.0011111111111111111,0.02,0.07,0.73
2025-01-03 10:55:32.259924,-0.007873666475336143,-0.0040283874990091895,0.3261773150712895,0.945267230259929,0.011111111111111112,-0.013333333333333334,-0.01888888888888889,0.05,0.07,0.35
2025-01-03 10:55:32.272242,-0.008239705606754891,-0.004211405087896944,0.3260482026021083,0.9453078550919981,-0.08444444444444445,-0.012222222222222223,-0.027777777777777776,0.44,-0.28,-1.25
2025-01-03 10:55:32.285872,-0.008484165330027727,-0.004211564084690023,0.3259384378586192,0.9453435441112911,-0.043333333333333335,-0.016666666666666666,-0.024444444444444446,-0.1,-0.1,-0.85
2025-01-03 10:55:32.296485,-0.008483696036767943,-0.0036009932817935874,0.32592040889453827,0.9453522871474724,0.0044444444444444444,0.03777777777777778,-0.0011111111111111111,0.34,-0.28,1.59
2025-01-03 10:55:32.308592,-0.008484023792700605,-0.00390631311318589,0.3258109280966606,0.9453888095333789,-0.02666666666666667,-0.05444444444444444,-0.03,-0.21,-0.21,-0.06
2025-01-03 10:55:32.321877,-0.008606103772196116,-0.003906316605819514,0.32562811081323606,0.9454506910022542,-0.025555555555555557,0.012222222222222223,-0.034444444444444444,-0.64,0.21,-1.34
2025-01-03 10:55:32.335421,-0.009094340427184006,-0.0042725089255226875,0.325626215966622,0.9454451893763777,-0.06555555555555556,-0.03888888888888889,-0.013333333333333334,0.0,0.04,0.03
2025-01-03 10:55:32.346464,-0.008850379836497344,-0.00415052295780565,0.32575501508542287,0.9454036778448782,-0.043333333333333335,-0.0011111111111111111,0.015555555555555555,0.2,-0.05,0.56
2025-01-03 10:55:32.361304,-0.008606067334728002,-0.004455623513724426,0.32580983994878066,0.9453856521106526,0.025555555555555557,-0.07111111111111111,0.0033333333333333335,0.15,-0.81,-0.85
2025-01-03 10:55:32.374634,-0.008361940900778707,-0.004455632742750698,0.32581051480552364,0.9453876103077474,0.04777777777777778,-0.016666666666666666,0.0077777777777777776,0.74,-0.25,0.42
2025-01-03 10:55:32.386767,-0.008788980450174956,-0.0041503518792492845,0.32604676086690704,0.9453036750854842,-0.09555555555555556,0.021111111111111112,0.04777777777777778,0.77,0.09,2.59
2025-01-03 10:55:32.400157,-0.008789137659787248,-0.004150426117121756,0.3261746642632157,0.94525954817448,0.0,0.0,0.025555555555555557,-0.16,0.45,0.67
2025-01-03 10:55:32.409920,-0.008911369861970978,-0.004333611371232462,0.3261195148802119,0.9452766099475653,-0.03222222222222222,-0.023333333333333334,-0.017777777777777778,-0.34,0.61,-3.86
2025-01-03 10:55:32.423586,-0.00909449046767646,-0.004150505716791942,0.32593677246572017,0.9453387138481412,-0.027777777777777776,0.052222222222222225,-0.034444444444444444,-0.37,0.2,-1.94
2025-01-03 10:55:32.436293,-0.008239879775671356,-0.003906313375133087,0.3259940583841534,0.945327836782207,0.14777777777777779,0.023333333333333334,-0.022222222222222223,0.37,-0.29,4.08
2025-01-03 10:55:32.447224,-0.0084231006486773,-0.004150513363116351,0.32630359469441195,0.9452183814885267,0.035555555555555556,-0.03222222222222222,0.024444444444444446,-0.57,-0.22,-0.95
2025-01-03 10:55:32.459282,-0.0085449710563506,-0.004333521035720661,0.3265399653676836,0.9451348343399216,-0.03888888888888889,-0.01888888888888889,0.051111111111111114,-0.26,-0.29,-2.15
2025-01-03 10:55:32.472525,-0.008667175519254366,-0.004638769996220647,0.32666706604964346,0.9450883502826382,-0.044444444444444446,-0.056666666666666664,0.017777777777777778,0.35,0.18,-1.01
2025-01-03 10:55:32.486102,-0.00842286351737856,-0.0045776432159666085,0.3269047608628954,0.9450086655041466,0.0,0.0077777777777777776,0.025555555555555557,0.34,0.05,2.19
2025-01-03 10:55:32.496805,-0.00823976804108171,-0.004638684230534889,0.326905167615064,0.9450098413338379,0.058888888888888886,0.005555555555555556,0.025555555555555557,0.04,-0.01,0.65
2025-01-03 10:55:32.507790,-0.008544941213196744,-0.004638682372878232,0.32672193081601547,0.9450704981795598,-0.06444444444444444,0.027777777777777776,-0.027777777777777776,-0.14,0.11,-0.99
2025-01-03 10:55:32.520377,-0.00909405285197937,-0.0046385772936270615,0.3265924618184001,0.9451101235765139,-0.10444444444444445,0.035555555555555556,-0.03222222222222222,0.3,0.23,0.25
2025-01-03 10:55:32.534776,-0.008789255110024307,-0.0046998100241102195,0.32648420544111123,0.9451501067967111,0.052222222222222225,-0.03666666666666667,-0.022222222222222223,0.01,0.01,-0.45
2025-01-03 10:55:32.546780,-0.008606161787756176,-0.004638782240209002,0.3264848184589204,0.9451518814425841,0.04,0.0077777777777777776,0.0,-0.55,-0.1,-3.56
2025-01-03 10:55:32.557863,-0.00854480696266249,-0.00463860949401678,0.3264116259737071,0.9451777187413665,0.11222222222222222,-0.01888888888888889,-0.02,-0.09,-0.71,-0.43
2025-01-03 10:55:32.569345,-0.008056406681320448,-0.0045775037962048,0.32646757074532634,0.9451629838403671,0.09333333333333334,-0.024444444444444446,0.011111111111111112,-0.57,0.0,1.12
2025-01-03 10:55:32.583548,-0.008544770802841562,-0.004638589864399706,0.3267764491315266,0.9450516507942768,-0.09555555555555556,0.015555555555555555,0.06888888888888889,-0.3,0.3,0.14
2025-01-03 10:55:32.593514,-0.008483715361952228,-0.004821679953915295,0.3269587280142308,0.9449882370439305,0.0077777777777777776,-0.03,0.044444444444444446,0.16,0.28,0.93
2025-01-03 10:55:32.604488,-0.008361658557114036,-0.0047606523171890135,0.3269591597843788,0.9449894849620192,0.02666666666666667,0.006666666666666667,0.0022222222222222222,0.09,0.51,-0.96
2025-01-03 10:55:32.618401,-0.008239768762430554,-0.005065931905790637,0.32672209026141297,0.9450709593887014,0.03888888888888889,-0.07444444444444444,-0.028888888888888888,-0.13,-0.36,-1.75
2025-01-03 10:55:32.631606,-0.00811740722693098,-0.004882650963567507,0.3266493494626662,0.9450981271355355,0.03888888888888889,0.035555555555555556,-0.016666666666666666,0.68,-0.33,1.46
2025-01-03 10:55:32.642068,-0.008483902979538835,-0.004821786585493295,0.3267218176220963,0.9450701707566858,-0.06777777777777778,0.03777777777777778,0.012222222222222223,0.49,0.18,1.44
2025-01-03 10:55:32.654031,-0.008606278944611025,-0.005066107463849043,0.326794450137925,0.9450426730454786,-0.051111111111111114,-0.04111111111111111,0.022222222222222223,0.52,0.17,0.33
2025-01-03 10:55:32.666271,-0.008972339438427773,-0.0049439421395418345,0.32648329017789224,0.9451474571704358,-0.06222222222222222,0.03666666666666667,-0.006666666666666667,-0.06,-0.21,-1.83
2025-01-03 10:55:32.678820,-0.008422941711697869,-0.004821828950899504,0.32599225856650954,0.9453226176143231,0.11888888888888889,-0.021111111111111112,-0.10333333333333333,-0.19,-0.66,-0.23
2025-01-03 10:55:32.689723,-0.008362097831305215,-0.004699865204456216,0.3257555921582185,0.9454053526210692,0.02666666666666667,0.025555555555555557,-0.04666666666666667,-0.59,-0.02,0.07
2025-01-03 10:55:32.700360,-0.008483818658328814,-0.0048827733285345684,0.3258640850130758,0.9453659510708993,-0.043333333333333335,-0.03111111111111111,0.024444444444444446,-0.64,0.19,0.39
2025-01-03 10:55:32.711925,-0.00817878360482139,-0.005188034376192673,0.3261747730161605,0.9452598633423049,0.044444444444444446,-0.07555555555555556,0.058888888888888886,-0.32,0.36,0.27
2025-01-03 10:55:32.725635,-0.0081174092830952,-0.005248851115384866,0.32646633274643777,0.9451593996843027,-0.005555555555555556,-0.012222222222222223,0.06222222222222222,0.73,0.23,-1.76
2025-01-03 10:55:32.738059,-0.00769036366653816,-0.005065874478751327,0.326413213401953,0.9451823153969043,0.03222222222222222,-0.0077777777777777776,0.017777777777777778,0.67,-0.38,0.4
2025-01-03 10:55:32.749342,-0.007934498441794571,-0.005187941288865681,0.3262299551645537,0.9452429028313271,-0.06333333333333334,-0.0044444444444444444,-0.043333333333333335,0.33,0.22,-0.37
2025-01-03 10:55:32.763066,-0.008361728470640808,-0.005187933722660356,0.32604637584060725,0.945302558783101,-0.0811111111111111,0.023333333333333334,-0.034444444444444444,0.2,-0.02,-0.31
2025-01-03 10:55:32.777115,-0.00823968289255347,-0.004821740359346105,0.32604730379274544,0.9453052491842084,0.05,0.058888888888888886,-0.0077777777777777776,-0.47,-0.16,0.24
2025-01-03 10:55:32.789052,-0.008666870144983792,-0.005371018118018126,0.32604521348241844,0.94529918877119,-0.05444444444444444,0.013333333333333334,-0.0077777777777777776,-0.68,-0.24,-0.43
2025-01-03 10:55:32.799225,-0.008300719853422352,-0.005065880498779818,0.3258642889516319,0.9453665427180795,0.09,0.03777777777777778,-0.04111111111111111,-0.36,-0.07,-1.33
2025-01-03 10:55:32.811411,-0.00799557166190948,-0.005310036141878815,0.3256822167019007,0.9454305728471591,0.04555555555555556,-0.07,-0.04,0.11,-1.58,0.07
2025-01-03 10:55:32.827756,-0.008117622860544547,-0.005187954459746515,0.3258645748304311,0.9453673720825149,-0.017777777777777778,0.022222222222222223,0.034444444444444444,0.05,0.12,0.69
2025-01-03 10:55:32.838405,-0.007812260457389049,-0.005676095488571731,0.3262839406656395,0.9452224820592515,-0.01,-0.04111111111111111,0.05444444444444444,0.16,-0.18,-1.29
2025-01-03 10:55:32.848359,-0.007751248943503131,-0.005248877237332829,0.3262848571021082,0.9452251369136456,0.042222222222222223,0.07666666666666666,0.0022222222222222222,-0.22,-0.51,-0.89
2025-01-03 10:55:32.860087,-0.008300740478562406,-0.004089335382821185,0.32604820320941447,0.9453078568527539,-0.02666666666666667,0.2633333333333333,-0.04,0.85,-0.27,-2.54
2025-01-03 10:55:32.873193,-0.008666786574663275,-0.005248898911415786,0.32518759767468963,0.9455952422623811,-0.14888888888888888,-0.20666666666666667,-0.19444444444444445,-2.61,0.26,-0.42
2025-01-03 10:55:32.886969,-0.007568223890757653,-0.003845146009013969,0.3241519119662411,0.9459669522810715,0.30777777777777776,0.20333333333333334,-0.22444444444444445,-5.34,0.6,4.58
2025-01-03 10:55:32.896514,-0.00848381548211048,-0.0021362125314666677,0.3226901615389792,0.9464642207272462,-0.06333333333333334,0.3988888888888889,-0.3211111111111111,-10.39,2.78,0.26
2025-01-03 10:55:32.908495,-0.00793451991560499,-0.00018310430574473055,0.32018839597895216,0.9473206431546543,0.043333333333333335,0.16333333333333333,-0.2311111111111111,-7.12,-0.69,0.36
2025-01-03 10:55:32.922001,-0.009033280961472103,-0.0020752131938516992,0.31793486843451474,0.948067251179366,-0.33666666666666667,-0.3022222222222222,-0.4822222222222222,-0.83,-2.84,-1.25
2025-01-03 10:55:32.935719,-0.008667091907811729,-0.0028686853497686708,0.3164709263521395,0.9485582770373385,0.025555555555555557,-0.17,-0.32222222222222224,-3.99,-0.48,0.2
2025-01-03 10:55:32.946294,-0.007995559509423131,-0.0036620883249266246,0.3148785611382743,0.9490912242101502,0.07555555555555556,-0.19444444444444445,-0.3511111111111111,-1.37,-0.21,0.96
2025-01-03 10:55:32.957073,-0.007873606593369883,-0.0041504282817763725,0.31335733527411613,0.9495935765864235,-0.015555555555555555,-0.1,-0.33555555555555555,-2.01,0.75,0.65
2025-01-03 10:55:32.969760,-0.00793444359791244,-0.0036010167098217997,0.31157949667186924,0.9501801379407758,0.012222222222222223,-0.03222222222222222,-0.16555555555555557,-2.45,1.04,-0.43
2025-01-03 10:55:32.982869,-0.007629138777147572,-0.0038450859436823764,0.311635060768924,0.9501634598610672,0.04555555555555556,-0.057777777777777775,0.01,-2.42,0.37,-0.2
2025-01-03 10:55:32.993776,-0.007751371083596015,-0.003662065078864259,0.312130013555197,0.9500007158753698,-0.011111111111111112,0.03222222222222222,0.11,-1.61,-0.22,0.32
2025-01-03 10:55:33.004345,-0.007751524055603084,-0.003906279839044073,0.31244135150104085,0.9498973927350456,-0.014444444444444444,-0.044444444444444446,0.06888888888888889,-1.2,-0.25,0.4
2025-01-03 10:55:33.018881,-0.0073853059048850055,-0.004333526605345747,0.3120749511708846,0.9500188959465712,0.034444444444444444,-0.07111111111111111,-0.017777777777777778,0.62,-0.38,-0.3
2025-01-03 10:55:33.030842,-0.007507350969292207,-0.00451661765632214,0.3117076536599618,0.9501376629184698,-0.02666666666666667,-0.01888888888888889,-0.07444444444444444,0.52,-0.06,-0.59
2025-01-03 10:55:33.041241,-0.007385132497840272,-0.0045165273127287615,0.31139624796678567,0.9502407261064065,0.017777777777777778,-0.014444444444444444,-0.06555555555555556,0.86,0.05,-0.03
2025-01-03 10:55:33.052293,-0.007385411129821588,-0.004577734171377018,0.31128592365363716,0.9502765775222505,0.0,-0.01,-0.03222222222222222,0.4,0.35,0.12
2025-01-03 10:55:33.066295,-0.007507186485252252,-0.004516518698444444,0.31121255193740843,0.9502999477672973,-0.024444444444444446,0.021111111111111112,-0.01,0.07,0.19,-0.07
2025-01-03 10:55:33.079347,-0.007507455471145036,-0.00451668052735555,0.3107354130373933,0.9504560698916301,0.0011111111111111111,0.0011111111111111111,-0.03222222222222222,-0.34,-0.25,0.04
2025-01-03 10:55:33.091104,-0.007629356645393531,-0.004577613987236119,0.31042326318777197,0.9505568031628708,-0.017777777777777778,0.008888888888888889,-0.07111111111111111,-0.13,-0.21,0.17
2025-01-03 10:55:33.102619,-0.007507427041398483,-0.0045776994154868795,0.31018491239339097,0.9506355786161087,0.011111111111111112,-0.012222222222222223,-0.044444444444444446,0.1,-0.27,0.16
2025-01-03 10:55:33.113775,-0.0074461012587218834,-0.004638554882482485,0.31011180734070404,0.9506596164414103,0.013333333333333334,-0.014444444444444444,-0.013333333333333334,0.22,-0.11,0.22
2025-01-03 10:55:33.127665,-0.0074465311993075,-0.004699859855300636,0.310129713308864,0.9506534707312649,-0.0011111111111111111,-0.011111111111111112,0.0044444444444444444,0.71,-0.01,-0.08
2025-01-03 10:55:33.140630,-0.007629624686456299,-0.004638811809365429,0.3099458732626007,0.9507122729299464,-0.04,0.03222222222222222,-0.03666666666666667,0.35,-0.15,0.0
2025-01-03 10:55:33.152359,-0.008056510820505772,-0.004882733830609559,0.3095042906877634,0.950851379338329,-0.10111111111111111,-0.025555555555555557,-0.09222222222222222,-1.02,-1.34,0.31
2025-01-03 10:55:33.166243,-0.008117687590268664,-0.004455572887891823,0.30908248088060536,0.9509901529622259,0.02,0.08888888888888889,-0.09111111111111111,0.48,-3.16,-1.15
2025-01-03 10:55:33.179479,-0.007757590993830699,-0.004353180557689169,0.282566066199747,-0.9592065928846635,-0.0077777777777777776,-0.01,-0.044444444444444446,0.02,-5.85,-1.91
2025-01-03 10:55:33.190261,-0.008666952119534022,-0.004455545807929462,0.3088974977250823,0.9510454079336558,-0.014444444444444444,0.058888888888888886,-0.028888888888888888,0.39,-5.88,0.15
2025-01-03 10:55:33.200577,-0.008727901157962039,-0.004760673358888384,0.30797894575577933,0.9513412262178622,-0.027777777777777776,-0.05333333333333334,-0.2,-1.16,-1.52,-0.4
2025-01-03 10:55:33.213293,-0.009704662022850594,-0.005981489800247536,0.3059715139657235,0.9519724123924573,-0.27444444444444444,-0.16111111111111112,-0.4288888888888889,1.97,-2.26,0.35
2025-01-03 10:55:33.227130,-0.00927733127357685,-0.0056762618976489935,0.3063960723247091,0.9518419816541511,0.10444444444444445,0.03111111111111111,0.08555555555555555,0.74,-2.23,0.42
2025-01-03 10:55:33.240208,-0.009032917422158598,-0.0054929903242856345,0.30687505945009075,0.9516910902953988,0.06222222222222222,0.016666666666666666,0.08,0.15,-1.69,-0.15
2025-01-03 10:55:33.250766,-0.008849838101291476,-0.005370936226990689,0.3068757653330589,0.9516932794030206,0.03888888888888889,0.01888888888888889,0.006666666666666667,0.38,-1.77,-0.96
2025-01-03 10:55:33.264105,-0.008972071074345719,-0.005554139236499731,0.307003520435095,0.9516498788516902,-0.028888888888888888,-0.035555555555555556,0.025555555555555557,0.22,-2.5,0.51
2025-01-03 10:55:33.279448,-0.008910884744991332,-0.005676111515645163,0.3072424233307285,0.9515726305421908,-0.0044444444444444444,-0.02666666666666667,0.051111111111111114,0.18,-1.73,1.0
2025-01-03 10:55:33.290483,-0.008850050724991397,-0.00573727426309787,0.30755452140159756,0.9514720051854544,0.011111111111111112,-0.03222222222222222,0.02,0.28,-1.82,-0.87
2025-01-03 10:55:33.301846,-0.00872799042384265,-0.005737280418469993,0.3075548513688329,0.9514730259949864,0.02666666666666667,0.0,-0.008888888888888889,0.39,-1.05,0.08
2025-01-03 10:55:33.314923,-0.008666977755219374,-0.005371084806051443,0.30755564020105935,0.9514754663810903,0.025555555555555557,0.06,-0.0077777777777777776,0.76,-0.98,1.0
2025-01-03 10:55:33.329609,-0.008728122710152582,-0.005737367375904495,0.30713226208033423,0.9516095186992232,-0.011111111111111112,-0.0011111111111111111,-0.02666666666666667,-0.36,-0.3,-1.89
2025-01-03 10:55:33.341328,-0.0085446854025517,-0.005554045511658605,0.3068762728859282,0.9516948534427762,0.05,0.025555555555555557,-0.06333333333333334,-0.1,-0.26,-0.6
2025-01-03 10:55:33.352573,-0.008361913939212384,-0.005493228135249011,0.3067662734195726,0.9517322923659759,0.03666666666666667,-0.006666666666666667,-0.02666666666666667,-0.02,-0.34,0.23
2025-01-03 10:55:33.365650,-0.008605725778010345,-0.005309915905580851,0.30687651923287956,0.9516956174220944,-0.028888888888888888,0.043333333333333335,0.025555555555555557,-0.08,-0.28,1.12
2025-01-03 10:55:33.379062,-0.008544867299019548,-0.00543209421151957,0.3070048751004881,0.9516540780450914,-0.0044444444444444444,-0.022222222222222223,0.03333333333333333,-0.23,-0.61,-1.48
2025-01-03 10:55:33.391415,-0.008667225309492335,-0.005981606199508795,0.3068930201135737,0.9516857537014402,-0.013333333333333334,0.0022222222222222222,-0.025555555555555557,0.0,-0.3,-1.18
2025-01-03 10:55:33.404405,-0.008544811021121748,-0.00592033335034864,0.30663664692939757,0.9517698790240895,0.022222222222222223,0.008888888888888889,-0.04888888888888889,0.6,-0.34,-1.06
2025-01-03 10:55:33.414500,-0.008606020013198929,-0.0055542398666744855,0.3065818335198455,0.9517891920980431,0.013333333333333334,0.08222222222222222,-0.017777777777777778,0.28,-0.1,2.03
2025-01-03 10:55:33.427782,-0.008361716291325998,-0.005676201570024218,0.3064538503558236,0.9518318654250288,0.03666666666666667,-0.03888888888888889,-0.024444444444444446,-0.06,-0.16,1.76
2025-01-03 10:55:33.440907,-0.008605798420327439,-0.005737198946884959,0.3060856672194476,0.9519477869634544,0.03222222222222222,-0.03777777777777778,-0.028888888888888888,0.15,0.08,-1.32
2025-01-03 10:55:33.450973,-0.00860594122586724,-0.00573729415057816,0.30584660626114,0.952024618731044,0.008888888888888889,0.0,-0.04888888888888889,0.32,0.14,0.21
2025-01-03 10:55:33.464115,-0.008117851167866702,-0.005615355695065689,0.3057927394812946,0.9520469362134197,0.10222222222222223,0.0022222222222222222,-0.01888888888888889,0.13,0.11,-0.17
2025-01-03 10:55:33.477895,-0.008239921477781225,-0.005493280985187483,0.3057926415087699,0.9520466311883818,-0.021111111111111112,0.03333333333333333,-0.0011111111111111111,0.12,0.18,2.56
2025-01-03 10:55:33.490792,-0.00866706775635674,-0.005920461777229605,0.3052394778136624,0.9522177751191655,-0.06222222222222222,0.034444444444444444,-0.028888888888888888,-0.51,0.31,-1.42
2025-01-03 10:55:33.503010,-0.00878888306400948,-0.006347526657340181,0.3047423134624954,0.952373134241694,-0.04666666666666667,-0.07888888888888888,-0.10111111111111111,-0.13,-0.03,-3.19
2025-01-03 10:55:33.516843,-0.008545135000319306,-0.005310191035912712,0.3046340627613833,0.9524163324641604,0.10444444444444445,0.18222222222222223,-0.024444444444444446,0.44,-0.23,4.21
2025-01-03 10:55:33.529937,-0.008239487696291773,-0.005859191250696371,0.3048000115206008,0.9523627112069394,0.09555555555555556,-0.051111111111111114,0.0077777777777777776,0.21,0.17,-1.42
2025-01-03 10:55:33.541899,-0.008789254422401188,-0.005493284014000743,0.3046331168208634,0.95241337504964,-0.08555555555555555,0.10444444444444445,-0.03,-0.27,0.48,-1.58
2025-01-03 10:55:33.552788,-0.008667137402210461,-0.00573740081554777,0.30426535176069824,0.9525306077387075,0.0044444444444444444,-0.05333333333333334,-0.07777777777777778,0.09,0.48,0.95
2025-01-03 10:55:33.566638,-0.008666791401239535,-0.005798205514913773,0.3041921714350552,0.9525536154869395,0.0,-0.015555555555555555,-0.024444444444444446,-0.27,1.39,1.77
2025-01-03 10:55:33.583884,-0.00860612042810448,-0.005432232043271623,0.3042660307383038,0.9525327333404152,0.03666666666666667,0.07444444444444444,0.025555555555555557,-0.47,0.31,1.02
2025-01-03 10:55:33.591962,-0.008850358437528467,-0.005615399836224958,0.3038419607035635,0.9526647896065125,-0.05333333333333334,-0.02,-0.08666666666666667,0.22,-0.32,-1.4
2025-01-03 10:55:33.603528,-0.008972202345459873,-0.005310078939149721,0.303345888822691,0.9528234749317965,0.006666666666666667,0.06444444444444444,-0.10555555555555556,-0.03,0.31,-0.76
2025-01-03 10:55:33.615124,-0.008667189080712751,-0.005249142682685188,0.30310747165365864,0.9529025065358273,0.058888888888888886,-0.006666666666666667,-0.052222222222222225,0.41,0.11,1.76
2025-01-03 10:55:33.629792,-0.008606000584667095,-0.0051880145368560495,0.30316315534781174,0.9528856817576077,0.013333333333333334,0.0033333333333333335,0.016666666666666666,-0.18,0.42,-2.12
2025-01-03 10:55:33.641932,-0.009155474414024943,-0.005066029175760468,0.3032903490885996,0.9528407405156225,-0.04666666666666667,-0.0077777777777777776,-0.011111111111111112,-0.3,0.69,-2.23
2025-01-03 10:55:33.651973,-0.009155238820054255,-0.005432108366565524,0.3029773700183288,0.9529382913167138,-0.013333333333333334,-0.06666666666666667,-0.06555555555555556,-0.34,0.8,-0.31
2025-01-03 10:55:33.665048,-0.00921642297768476,-0.005249088583317148,0.30273813224712853,0.9530147574408598,-0.0011111111111111111,0.03777777777777778,-0.051111111111111114,0.01,0.86,2.1
2025-01-03 10:55:33.679031,-0.009155203708474703,-0.005126914076745833,0.30260999991078386,0.9530567060522166,0.014444444444444444,0.017777777777777778,-0.028888888888888888,0.03,0.21,0.77
2025-01-03 10:55:33.691367,-0.009093978070295482,-0.005187839838759168,0.30248157930459335,0.9530977284948607,0.01888888888888889,-0.02666666666666667,-0.0077777777777777776,0.44,-0.22,-1.43
2025-01-03 10:55:33.702473,-0.009033090967292769,-0.005187923866350577,0.3022423410137418,0.95317420024467,0.01,0.0,-0.05444444444444444,0.24,0.15,-0.34
2025-01-03 10:55:33.715249,-0.00903323171191842,-0.0051880046994126055,0.3020029088552185,0.9532500870050127,-0.0044444444444444444,0.006666666666666667,-0.05555555555555555,0.19,0.44,-0.3
2025-01-03 10:55:33.729122,-0.009033374734714723,-0.005127050525108356,0.3017635451920918,0.9533262160912788,0.0,0.016666666666666666,-0.04111111111111111,-0.03,0.49,1.55
2025-01-03 10:55:33.742517,-0.009338177158782551,-0.0053099438746018425,0.3018733609629967,0.9532875100851286,-0.034444444444444444,-0.01888888888888889,-0.0077777777777777776,-0.44,0.14,-0.71
2025-01-03 10:55:33.753428,-0.00915509989379244,-0.005126855940523766,0.3018741604979827,0.9532900349409608,0.05333333333333334,0.022222222222222223,0.006666666666666667,0.0,-0.15,-1.13
2025-01-03 10:55:33.765751,-0.00909407095907901,-0.005126858795722395,0.30187432861479724,0.9532905658379535,0.012222222222222223,-0.0022222222222222222,0.0077777777777777776,0.11,0.02,0.73
2025-01-03 10:55:33.779273,-0.00933855440013228,-0.005188085777851266,0.3019465922709437,0.9532649844527186,-0.04888888888888889,-0.0077777777777777776,0.013333333333333334,0.27,-0.01,-0.72
2025-01-03 10:55:33.791937,-0.00946023089642019,-0.005370969799257915,0.3018729162173823,0.9532861056205609,-0.034444444444444444,-0.012222222222222223,0.0,0.06,-0.07,-0.79
2025-01-03 10:55:33.802896,-0.009338180167765884,-0.005248911728286706,0.3018734582337913,0.9532878172570939,0.006666666666666667,-0.011111111111111112,-0.011111111111111112,0.04,-0.06,-0.36
2025-01-03 10:55:33.814653,-0.009277529174243753,-0.00506601922014626,0.30194695279594636,0.9532661226535457,0.01,0.025555555555555557,0.014444444444444444,0.13,0.01,0.73
2025-01-03 10:55:33.827624,-0.00903308438871508,-0.004760679610268758,0.3020590178361549,0.953234540425352,0.07444444444444444,0.044444444444444446,0.021111111111111112,-0.02,0.05,0.19
2025-01-03 10:55:33.841944,-0.00418485949341226,0.8939735142659235,0.13539251302216135,0.4271565405792109,-0.0811111111111111,-0.04666666666666667,0.017777777777777778,-0.09,0.63,1.31
2025-01-03 10:55:33.852649,-0.009277561525260209,-0.00494396370753998,0.30213111546077653,0.9532084101315045,0.0,0.023333333333333334,0.0011111111111111111,-0.17,0.18,0.15
2025-01-03 10:55:33.865111,-0.009460667203742197,-0.0052491443840118,0.30231409458151676,0.9531469616363751,-0.06,-0.044444444444444446,0.03888888888888889,-0.33,0.37,326.59
2025-01-03 10:55:33.878862,-0.009338461494466738,-0.005188034163592633,0.30255394528151386,0.9530723936999878,0.023333333333333334,0.0011111111111111111,0.04888888888888889,0.48,-0.51,-0.15
2025-01-03 10:55:33.892075,-0.009216128657539279,-0.005309954921893492,0.30321673622950424,0.9528622556390942,0.05555555555555555,-0.057777777777777775,0.06,1.04,-0.2,1.18
2025-01-03 10:55:33.904213,-0.00964374723352223,-0.005066019116343957,0.3034728559814717,0.952777812122038,-0.03888888888888889,0.028888888888888888,0.07777777777777778,1.1,-0.26,-0.63
2025-01-03 10:55:33.916578,-0.009521302293472103,-0.005187889070161082,0.3033999596208322,0.9528016032268782,0.016666666666666666,-0.02666666666666667,-0.012222222222222223,-0.3,0.15,-1.91
2025-01-03 10:55:33.930631,-0.009582305602295534,-0.005187872459841531,0.30321588682932615,0.9528595863887762,-0.011111111111111112,-0.005555555555555556,-0.042222222222222223,-0.78,0.07,0.21
2025-01-03 10:55:33.943304,-0.009216143162595974,-0.0050047929757143705,0.30321721345547553,0.9528637553274726,0.022222222222222223,0.04555555555555556,-0.01,-0.61,-0.1,0.42
2025-01-03 10:55:33.953575,-0.009338244278934383,-0.0045775707249678345,0.3034013876508681,0.9528060878329716,0.0,0.09,0.04111111111111111,0.27,-0.35,3.46
2025-01-03 10:55:33.966141,-0.009399289409635896,-0.004760679051633765,0.3035848410618763,0.9527461537949112,-0.023333333333333334,-0.02666666666666667,0.035555555555555556,0.34,-0.12,-0.04
2025-01-03 10:55:33.980031,-0.009399275316471037,-0.005065843190046078,0.30358438587095415,0.9527447252604733,-0.012222222222222223,-0.06777777777777778,-0.0033333333333333335,0.21,-0.08,-2.52
2025-01-03 10:55:33.992404,-0.009765760954107036,-0.005493240536685208,0.30328791363098667,0.9528330890910309,-0.09666666666666666,-0.03333333333333333,-0.03333333333333333,0.39,-0.3,-0.29
2025-01-03 10:55:34.003539,-0.00927736521233045,-0.005065929688312021,0.3033454283242259,0.9528220284848069,-0.006666666666666667,-0.022222222222222223,-0.027777777777777776,0.41,-0.2,4.98
2025-01-03 10:55:34.014837,-0.009582177869303536,-0.005187803305036947,0.30363907579480953,0.9527248187250205,-0.056666666666666664,-0.006666666666666667,0.06111111111111111,-0.09,-0.37,1.21
2025-01-03 10:55:34.030158,-0.009826487301793198,-0.005309965187925517,0.30376662919891145,0.9526809956129816,-0.06555555555555556,-0.01,0.035555555555555556,-0.2,-0.78,-1.85
2025-01-03 10:55:34.043820,-0.009460470470302183,-0.005249035228683792,0.3035285138633081,0.9527609292994651,0.08222222222222222,-0.015555555555555555,-0.02,0.02,-0.3,-1.2
2025-01-03 10:55:34.053836,-0.00964373187468407,-0.0053711924365329,0.30347237266410887,0.9527762947077111,-0.04777777777777778,0.0,-0.01888888888888889,0.22,-0.07,2.08
2025-01-03 10:55:34.066246,-0.009215990922993675,-0.005126776407493171,0.30345633688161955,0.9527869821116177,0.09888888888888889,0.01888888888888889,0.008888888888888889,0.38,-0.36,3.06
2025-01-03 10:55:34.079955,-0.008850183410341196,-0.004882859812602039,0.30353077310087423,0.9527680209339728,0.08666666666666667,0.021111111111111112,0.014444444444444444,0.24,-0.32,0.24
2025-01-03 10:55:34.093007,-0.009216112985288726,-0.005126844309697039,0.30303311901959284,0.9529216691345223,-0.06333333333333334,0.01888888888888889,-0.025555555555555557,-0.25,0.48,-2.39
2025-01-03 10:55:34.103387,-0.009399161190431533,-0.0053709492516751615,0.30284829757741083,0.9529772910869997,-0.014444444444444444,-0.04555555555555556,-0.07222222222222222,0.07,0.22,-0.24
2025-01-03 10:55:34.117426,-0.009460553997690939,-0.00506597407618289,0.30273772792611003,0.953013484644815,0.0022222222222222222,0.06444444444444444,-0.015555555555555555,0.19,0.59,1.05
2025-01-03 10:55:34.132546,-0.009582605474539603,-0.005249070514715961,0.3027370901510601,0.9530114769392444,0.0,-0.023333333333333334,0.0077777777777777776,-0.2,-0.42,-0.7
2025-01-03 10:55:34.144531,-0.009826715396922876,-0.005432159443019478,0.3027360768244563,0.9530082870034396,-0.058888888888888886,-0.01888888888888889,0.0,0.56,-0.64,-0.32
2025-01-03 10:55:34.154507,-0.009460157156578372,-0.005492994478013249,0.30266399573853003,0.9530345419352987,0.06555555555555556,-0.028888888888888888,-0.017777777777777778,0.13,-0.29,-0.41
2025-01-03 10:55:34.166840,-0.009460175551732326,-0.005126804815132357,0.30266458426477805,0.9530363950987113,0.01888888888888889,0.07222222222222222,-0.0033333333333333335,0.15,-0.55,-0.35
2025-01-03 10:55:34.180298,-0.009643794514055436,-0.005615374020842406,0.3026808670582336,0.9530266300155797,-0.06222222222222222,-0.08555555555555555,-0.006666666666666667,-0.33,-0.16,-1.11
2025-01-03 10:55:34.193327,-0.008911042502640616,-0.0054931083920387366,0.30242613425057707,0.95311534055641,0.08444444444444445,-0.04666666666666667,-0.034444444444444444,0.01,-0.08,0.2
2025-01-03 10:55:34.203931,-0.00903294678027865,-0.0052488744804321886,0.30248165029095264,0.9530979521677797,0.06111111111111111,0.021111111111111112,-0.022222222222222223,0.23,0.01,2.09
2025-01-03 10:55:34.216023,-0.008667129313906232,-0.005004961998171204,0.3025560564016422,0.9530790439200408,0.07888888888888888,0.015555555555555555,0.01888888888888889,-0.09,0.31,1.89
2025-01-03 10:55:34.229738,-0.008789181191462832,-0.005249094322679192,0.30255535532000877,0.9530768354492509,-0.03333333333333333,-0.034444444444444444,-0.0011111111111111111,-0.3,0.37,-2.08
2025-01-03 10:55:34.243868,-0.009033063862299073,-0.005737216236865628,0.30224143409530413,0.9531713401184096,-0.11666666666666667,-0.017777777777777778,-0.03222222222222222,0.12,0.14,-0.12
2025-01-03 10:55:34.254072,-0.008972078093151915,-0.005371039946920874,0.30242616973855607,0.9531154523990497,0.03666666666666667,-0.056666666666666664,-0.035555555555555556,0.64,-0.36,2.99
2025-01-03 10:55:34.265410,-0.009338308652328755,-0.005310018645441841,0.30279313218433307,0.9529957601141255,0.03111111111111111,0.06444444444444444,0.042222222222222223,0.0,-0.36,2.0
2025-01-03 10:55:34.277690,-0.008728015849919724,-0.005676262056241499,0.3029781166363742,0.9529406396139626,0.09444444444444444,-0.10555555555555556,0.03,-0.31,-0.52,-2.96
2025-01-03 10:55:34.291428,-0.008728015849919724,-0.005676262056241499,0.3029781166363742,0.9529406396139626,-0.0033333333333333335,-0.006666666666666667,-0.0077777777777777776,-0.01,-0.29,-1.48
2025-01-03 10:55:34.302965,-0.009155373983795607,-0.005615296043394639,0.3027376997308414,0.953013395886564,-0.07222222222222222,0.04,-0.05,0.08,-0.1,-0.89
2025-01-03 10:55:34.312842,-0.008789360121792059,-0.005249201183848034,0.2888891767808459,0.9573078065985183,0.09444444444444444,0.017777777777777778,-0.057777777777777775,-0.38,0.12,0.89
2025-01-03 10:55:34.325246,-0.008484010375784714,-0.0050049557612542915,0.28876153300602503,0.9573503794545556,0.058888888888888886,-0.0077777777777777776,-0.023333333333333334,-0.2,-0.03,-0.15
2025-01-03 10:55:34.338009,-0.008361747783218406,-0.00512691104956457,0.2886328851594149,0.9573896038508314,0.021111111111111112,-0.02666666666666667,-0.014444444444444444,-0.03,-0.14,-1.32
2025-01-03 10:55:34.347830,-0.008544830358565871,-0.005310001722823077,0.28863216261184294,0.9573872071747448,-0.04888888888888889,-0.028888888888888888,-0.0011111111111111111,0.29,0.04,-0.08
2025-01-03 10:55:34.362564,-0.008605681315151895,-0.005248855270234489,0.2787996613305947,0.9602963816496447,0.0,0.0033333333333333335,0.021111111111111112,0.37,0.09,1.51
2025-01-03 10:55:34.374527,-0.008728155762347504,-0.005493244885393534,0.27905684017799154,0.9602192059667898,-0.021111111111111112,-0.025555555555555557,0.024444444444444446,0.09,-0.58,0.54
2025-01-03 10:55:34.387834,-0.008605957448025978,-0.005249023691703788,0.27911378304838863,0.960205124626558,0.03777777777777778,0.04888888888888889,0.011111111111111112,0.33,-0.35,-1.12
2025-01-03 10:55:34.397603,-0.008850076374719176,-0.005310045824831505,0.27911309835579856,0.9602027691522902,-0.051111111111111114,0.006666666666666667,0.008888888888888889,0.23,-0.07,-0.93
2025-01-03 10:55:34.407495,-0.008789133010334745,-0.005065958610123499,0.26660370131348726,0.9637528488415669,0.03222222222222222,0.011111111111111112,0.0,-0.17,0.14,-0.17
2025-01-03 10:55:34.421056,-0.008544644899582256,-0.0050657537618951955,0.26653188768911223,0.9637749114950244,0.04555555555555556,-0.008888888888888889,-0.022222222222222223,-0.3,0.42,1.3
2025-01-03 10:55:34.434234,-0.008728223396144891,-0.0047608491251699405,0.2661192587915505,0.9638888382651757,-0.008888888888888889,0.013333333333333334,-0.04,0.1,0.07,-0.89
2025-01-03 10:55:34.446094,-0.00878917377515197,-0.004577694674558317,0.2659335426273412,0.9639404266039935,0.006666666666666667,0.03333333333333333,-0.04,0.24,-0.07,-0.53
2025-01-03 10:55:34.456242,-0.008667020067512488,-0.004577651444108708,0.2548836324079729,0.9669220557009355,0.023333333333333334,-0.02666666666666667,-0.034444444444444444,-0.44,0.0,0.82
2025-01-03 10:55:34.467673,-0.008606115763157934,-0.0047608299966405586,0.2548264773842863,0.9669367795740991,0.01,-0.03666666666666667,-0.016666666666666666,-0.21,0.02,0.21
2025-01-03 10:55:34.481305,-0.009033078180300722,-0.004882744962324715,0.25469618409726297,0.9669666054763808,-0.09222222222222222,-0.0033333333333333335,-0.016666666666666666,-0.08,0.17,-0.38
2025-01-03 10:55:34.495437,-0.008728204162623777,-0.004821875026904045,0.2545827941419844,0.9669995702688706,-0.028888888888888888,0.014444444444444444,-0.016666666666666666,0.0,-0.03,0.76
2025-01-03 10:55:34.508422,-0.00872825119799355,-0.004760864289814664,0.2475039063486982,0.968835882977284,-0.0077777777777777776,0.006666666666666667,-0.006666666666666667,0.16,-0.11,1.1
2025-01-03 10:55:34.523775,-0.008850315145482122,-0.004760859181707625,0.24750364079262072,0.9688348434775016,-0.024444444444444446,-0.0044444444444444444,-0.008888888888888889,-0.24,0.33,-0.31
2025-01-03 10:55:34.536531,-0.008788891068902483,-0.00488271726050138,0.2474316971759074,0.9688531724149863,-0.022222222222222223,0.0044444444444444444,-0.0033333333333333335,0.12,0.2,1.03
2025-01-03 10:55:34.547364,-0.00903300182962836,-0.0050047712839832795,0.24743100957644168,0.9688504800237876,-0.04777777777777778,-0.013333333333333334,0.0,0.1,0.37,1.11
2025-01-03 10:55:34.557915,-0.008850173914955775,-0.0051880329846292475,0.24731658416138486,0.968880418800055,0.021111111111111112,-0.03222222222222222,-0.015555555555555555,0.17,0.11,-0.98
2025-01-03 10:55:34.571809,-0.009155473902400523,-0.0050049923999789525,0.2472588318574968,0.968893284844706,-0.052222222222222225,0.051111111111111114,-0.013333333333333334,-0.01,-0.21,-0.12
2025-01-03 10:55:34.585029,-0.009033427217371633,-0.004882933631011693,0.247015405058804,0.9689571424038829,-0.013333333333333334,0.01,-0.015555555555555555,-0.18,-0.07,1.07
2025-01-03 10:55:34.596331,-0.009338457076254766,-0.004821817706040042,0.24682823801551812,0.9690022519125533,-0.06222222222222222,0.025555555555555557,-0.035555555555555556,0.09,-0.07,0.1
2025-01-03 10:55:34.606818,-0.009399217333831133,-0.004760642545706677,0.24669893807367166,0.9690348935664732,-0.006666666666666667,0.017777777777777778,-0.02666666666666667,-0.23,-0.01,-2.37
2025-01-03 10:55:34.618851,-0.009033309313562062,-0.004699762278001883,0.2468290734057093,0.969005531500752,0.07444444444444444,-0.0033333333333333335,0.022222222222222223,-0.17,-0.53,0.8
2025-01-03 10:55:34.633159,-0.008666730319009625,-0.004699565032139022,0.24700181409177432,0.9689648629901184,0.06555555555555556,-0.025555555555555557,0.035555555555555556,0.08,-0.01,2.18
2025-01-03 10:55:34.646308,-0.00939961518074333,-0.004638771128159046,0.24725870842331965,0.9688928011631144,-0.005555555555555556,-0.0022222222222222222,0.03111111111111111,0.43,0.53,-0.67
2025-01-03 10:55:34.658839,-0.009338578701135507,-0.004760844043716141,0.2472587079627447,0.9688927993583336,0.01,-0.016666666666666666,0.0,0.11,-0.14,-0.08
2025-01-03 10:55:34.671880,-0.008972127526067799,-0.00482175560924732,0.24713023369420759,0.9689287379341924,0.07,-0.042222222222222223,-0.017777777777777778,-0.25,0.2,0.11
2025-01-03 10:55:34.685385,-0.009582735027486168,-0.0042725570186244064,0.24701483220532816,0.9689548952951779,-0.09555555555555556,0.06333333333333334,-0.0033333333333333335,0.3,-0.57,1.48
2025-01-03 10:55:34.696625,-0.009155378622374935,-0.0045166534537049675,0.24682900765922824,0.9690052733921631,0.07666666666666666,-0.07222222222222222,-0.043333333333333335,-0.08,-0.29,-0.2
2025-01-03 10:55:34.708150,-0.009643621221363963,-0.004516632723929957,0.24682787480503712,0.9690008260150271,-0.1,0.028888888888888888,0.0,-0.05,-0.16,-0.62
2025-01-03 10:55:34.722459,-0.009826707709298284,-0.004577658870791126,0.2468273663130575,0.9689988297690655,-0.04111111111111111,-0.01,0.0033333333333333335,-0.24,0.19,-0.24
2025-01-03 10:55:34.735599,-0.009643615832500835,-0.004638701286519389,0.24682773687742646,0.9690002845366029,0.03333333333333333,-0.10444444444444445,-0.012222222222222223,0.1,0.04,-1.38
2025-01-03 10:55:34.747634,-0.009704651068443159,-0.004516630057011282,0.24682772906153544,0.9690002538528528,-0.0022222222222222222,0.034444444444444444,0.0077777777777777776,0.39,0.24,-0.58
2025-01-03 10:55:34.758254,-0.009765528213012737,-0.00463862590118105,0.24688476013522825,0.9689845369361889,-0.02,-0.027777777777777776,0.013333333333333334,0.1,-0.11,-1.29
2025-01-03 10:55:34.770437,-0.010070678873088476,-0.004455512471123992,0.2468842184341993,0.9689824108433494,-0.05555555555555555,0.05444444444444444,0.0022222222222222222,0.22,-0.03,-0.82
2025-01-03 10:55:34.783407,-0.009887894280248591,-0.004394619680110485,0.24677010231509292,0.9690136394643619,0.044444444444444446,-0.0033333333333333335,-0.024444444444444446,-0.46,0.2,1.74
2025-01-03 10:55:34.796015,-0.009948630421635563,-0.004516556142337618,0.24664058609711234,0.9690454307012751,-0.0011111111111111111,-0.06666666666666667,-0.015555555555555555,0.06,-0.16,1.18
2025-01-03 10:55:34.806346,-0.00988760457187111,-0.004455525516954266,0.2466408029316738,0.9690462826394914,-0.028888888888888888,0.04555555555555556,0.0,-0.08,0.04,-1.37
2025-01-03 10:55:34.818305,-0.009826718380458233,-0.004577663841828369,0.2465834922798215,0.9690609175561202,0.0,-0.025555555555555557,-0.016666666666666666,0.28,0.29,-1.06
2025-01-03 10:55:34.831946,-0.010009962909782852,-0.004455654222037489,0.24652585483300574,0.9690742751135509,-0.025555555555555557,0.035555555555555556,-0.016666666666666666,0.47,-0.2,0.02
2025-01-03 10:55:34.845846,-0.009948793066905269,-0.004455594441006654,0.24633944060140897,0.9691223086890911,0.01,0.0077777777777777776,-0.03777777777777778,-0.35,0.04,-0.8
2025-01-03 10:55:34.856280,-0.010253795761821984,-0.004638621892252802,0.24590799478798078,0.9692278374865065,-0.0011111111111111111,-0.03666666666666667,-0.04888888888888889,-0.39,0.15,-2.34
2025-01-03 10:55:34.867433,-0.010253647768646889,-0.004699588560629824,0.24572134474150223,0.9692748822254836,-0.06666666666666667,0.012222222222222223,-0.04111111111111111,0.07,-0.26,-1.61
2025-01-03 10:55:34.879189,-0.010070719539913535,-0.004638634454748053,0.24566452211001197,0.9692914970507082,0.03,0.0,-0.012222222222222223,0.11,0.09,-0.1
2025-01-03 10:55:34.893426,-0.010192634654045685,-0.004394429311923888,0.2457218390250774,0.9692768319814342,-0.01,0.057777777777777775,0.015555555555555555,0.09,-0.2,1.33
2025-01-03 10:55:34.905056,-0.010131888534215537,-0.004699731428521665,0.24585088563747098,0.9692433127912212,0.0033333333333333335,-0.058888888888888886,0.01888888888888889,0.04,-0.37,-1.4
2025-01-03 10:55:34.915311,-0.010314995760470425,-0.004455589884700243,0.2456067629593668,0.9693044240948568,-0.025555555555555557,0.05444444444444444,-0.04,0.58,0.09,-2.25
2025-01-03 10:55:34.928337,-0.01055882946613002,-0.004028223958176771,0.24523339187809493,0.9693981989048736,0.0011111111111111111,0.044444444444444446,-0.03666666666666667,0.48,-0.05,1.79
2025-01-03 10:55:34.941269,-0.010131787493384782,-0.004089335916004701,0.24517705036702814,0.9694167515507861,0.0811111111111111,-0.03333333333333333,-0.01,-0.19,0.0,2.65
2025-01-03 10:55:34.952622,-0.010498116703516669,-0.004028347107163373,0.24511881791466827,0.9694278348950887,-0.07222222222222222,0.023333333333333334,-0.011111111111111112,-0.47,-0.04,1.5
2025-01-03 10:55:34.963111,-0.010497950337561752,-0.004394490838979337,0.24493182967811225,0.9694735067548306,-0.012222222222222223,-0.07111111111111111,-0.051111111111111114,-0.29,0.02,-2.23
2025-01-03 10:55:34.976851,-0.010497788202894534,-0.004638557578023166,0.24474494589306442,0.9695195674591841,-0.012222222222222223,-0.07111111111111111,-0.051111111111111114,-0.11,0.48,-0.28
2025-01-03 10:55:34.989792,-0.010375876973127106,-0.004760696493552437,0.24493173113622985,0.9694731167126527,0.022222222222222223,-0.02666666666666667,0.03888888888888889,0.09,0.08,1.2
2025-01-03 10:55:34.999799,-0.010498082913458382,-0.004760758530521825,0.24511802895609805,0.9694247146189505,-0.028888888888888888,-0.006666666666666667,0.04,0.63,-0.39,-0.58
2025-01-03 10:55:35.010189,-0.010681168299733427,-0.0047607492993097566,0.2451175536670254,0.9694228348838059,-0.034444444444444444,0.012222222222222223,0.008888888888888889,0.46,-0.43,-0.18
2025-01-03 10:55:35.024383,-0.010681328082358665,-0.004760820516708434,0.24506018428954307,0.9694373367548724,0.0044444444444444444,0.0,-0.011111111111111112,0.64,-0.44,-1.61
2025-01-03 10:55:35.037008,-0.010742366403896014,-0.004577712956205688,0.24506023358887782,0.9694375317788658,0.006666666666666667,-0.0022222222222222222,-0.008888888888888889,0.0,0.1,-0.6
2025-01-03 10:55:35.048898,-0.010803410062623357,-0.004272535053014887,0.2450604033979253,0.9694382035290778,0.0077777777777777776,0.058888888888888886,0.008888888888888889,-0.08,-0.04,0.83
2025-01-03 10:55:35.059727,-0.010680895366769682,-0.003906156019847198,0.24498922286979147,0.9694590971758265,0.035555555555555556,0.06888888888888889,-0.014444444444444444,-0.18,0.01,2.07
2025-01-03 10:55:35.072797,-0.010680896699651896,-0.004028223898154429,0.24474511866059487,0.9695202518512592,0.008888888888888889,-0.024444444444444446,-0.051111111111111114,-0.06,-0.27,0.79
2025-01-03 10:55:35.085809,-0.010741929234646752,-0.004028223462992532,0.24450095746588005,0.9695811808045358,-0.01888888888888889,0.008888888888888889,-0.04888888888888889,-0.33,0.21,-0.37
2025-01-03 10:55:35.098474,-0.011169413330035816,-0.004699698504987747,0.24438432225936288,0.9696027331199397,-0.08777777777777777,-0.02666666666666667,-0.022222222222222223,-0.09,0.53,-1.72
2025-01-03 10:55:35.109199,-0.010802936142370248,-0.0043333811644536025,0.24474448548533725,0.9695177436245841,0.08333333333333333,0.052222222222222225,0.06666666666666667,0.24,-0.18,0.86
2025-01-03 10:55:35.122244,-0.01062016612729344,-0.004211445188409468,0.24511831705293366,0.969425854021849,0.043333333333333335,0.011111111111111112,0.08666666666666667,0.39,-0.37,2.81
2025-01-03 10:55:35.135483,-0.010864266048666011,-0.004333499378962285,0.24536151413279417,0.9693610864320988,-0.05,-0.01,0.052222222222222225,0.01,-0.45,-0.02
2025-01-03 10:55:35.148484,-0.01055896835306929,-0.004455518438000336,0.24517558308831985,0.9694109500104018,-0.022222222222222223,-0.058888888888888886,-0.0044444444444444444,-0.27,-0.28,-2.16
2025-01-03 10:55:35.159601,-0.010559120521389923,-0.004577653405226845,0.24511808100521346,0.9694249204695731,-0.006666666666666667,-0.028888888888888888,-0.011111111111111112,0.14,0.0,-0.34
2025-01-03 10:55:35.172657,-0.010498078533289532,-0.00469972120385636,0.24536206804548788,0.9693632748006066,0.0022222222222222222,-0.016666666666666666,0.04,-0.57,0.48,0.79
2025-01-03 10:55:35.186021,-0.01037604349172581,-0.004028346296787668,0.24560705300414507,0.9693055687770447,0.05555555555555555,0.12,0.05333333333333334,0.18,0.16,1.2
2025-01-03 10:55:35.199333,-0.010376346187254228,-0.004394687796954732,0.24524799400227934,0.969394883211598,-0.014444444444444444,-0.01888888888888889,0.0022222222222222222,0.24,-0.2,-0.96
