time,orientation_x,orientation_y,orientation_z,orientation_w,angular_velocity_x,angular_velocity_y,angular_velocity_z,linear_acceleration_x,linear_acceleration_y,linear_acceleration_z
2025-01-03 09:41:30.990011,-0.013061219871029964,-0.018493222527673266,-0.004699597804062183,0.999732623773228,-0.0033333333333333335,0.0,0.0,0.01,-0.07,-0.29
2025-01-03 09:41:31.001162,-0.013061219871029964,-0.018493222527673266,-0.004699597804062183,0.999732623773228,-0.0011111111111111111,0.0022222222222222222,0.0,0.0,-0.09,-0.41
2025-01-03 09:41:31.016425,-0.013061219871029964,-0.018493222527673266,-0.004699597804062183,0.999732623773228,0.0,0.0,0.0,-0.03,-0.01,-0.28
2025-01-03 09:41:31.027071,-0.013061219871029964,-0.018493222527673266,-0.004699597804062183,0.999732623773228,0.0,0.0,0.0,-0.04,0.0,-0.32
2025-01-03 09:41:31.040091,-0.013061219871029964,-0.018493222527673266,-0.004699597804062183,0.999732623773228,0.0022222222222222222,0.0,0.0,-0.09,0.0,-0.34
2025-01-03 09:41:31.050613,-0.013061219871029964,-0.018493222527673266,-0.004699597804062183,0.999732623773228,0.0,0.0,0.0,-0.03,0.01,-0.33
2025-01-03 09:41:31.065175,-0.013061219871029964,-0.018493222527673266,-0.004699597804062183,0.999732623773228,0.0011111111111111111,-0.0022222222222222222,0.0,-0.06,0.01,-0.38
2025-01-03 09:41:31.077994,-0.013061219871029964,-0.018493222527673266,-0.004699597804062183,0.999732623773228,0.0011111111111111111,-0.0033333333333333335,0.0,0.06,0.0,-0.34
2025-01-03 09:41:31.090964,-0.013061219871029964,-0.018493222527673266,-0.004699597804062183,0.999732623773228,0.0011111111111111111,-0.0033333333333333335,0.0,-0.02,0.0,-0.33
2025-01-03 09:41:31.101885,-0.013061219871029964,-0.018493222527673266,-0.004699597804062183,0.999732623773228,0.0,0.0,0.0,0.06,0.0,-0.34
2025-01-03 09:41:31.115132,-0.013061219871029964,-0.018493222527673266,-0.004699597804062183,0.999732623773228,0.0,0.0033333333333333335,0.0,0.06,0.0,-0.31
2025-01-03 09:41:31.127987,-0.013061219871029964,-0.018493222527673266,-0.004699597804062183,0.999732623773228,-0.0022222222222222222,0.0022222222222222222,0.0,-0.01,-0.02,-0.39
2025-01-03 09:41:31.139923,-0.013061219871029964,-0.018493222527673266,-0.004699597804062183,0.999732623773228,-0.0011111111111111111,0.0011111111111111111,-0.0022222222222222222,-0.04,-0.05,-0.3
2025-01-03 09:41:31.151471,-0.013061219871029964,-0.018493222527673266,-0.004699597804062183,0.999732623773228,0.0,0.005555555555555556,-0.0011111111111111111,-0.06,-0.08,-0.37
2025-01-03 09:41:31.165644,-0.013061219871029964,-0.018493222527673266,-0.004699597804062183,0.999732623773228,0.0,0.0,0.0,-0.06,-0.03,-0.32
2025-01-03 09:41:31.178500,-0.013061219871029964,-0.018493222527673266,-0.004699597804062183,0.999732623773228,0.0022222222222222222,0.0,0.0,-0.06,-0.01,-0.29
2025-01-03 09:41:31.192225,-0.013061219871029964,-0.018493222527673266,-0.004699597804062183,0.999732623773228,0.0011111111111111111,-0.0011111111111111111,-0.0022222222222222222,-0.05,0.03,-0.37
2025-01-03 09:41:31.203049,-0.013061219871029964,-0.018493222527673266,-0.004699597804062183,0.999732623773228,0.0011111111111111111,0.0,0.0011111111111111111,0.02,0.0,-0.41
2025-01-03 09:41:31.216453,-0.013061219871029964,-0.018493222527673266,-0.004699597804062183,0.999732623773228,0.0,0.0,0.0,0.04,-0.07,-0.3
2025-01-03 09:41:31.229714,-0.013061219871029964,-0.018493222527673266,-0.004699597804062183,0.999732623773228,0.0,0.0,0.0,-0.01,0.0,-0.31
2025-01-03 09:41:31.245031,-0.013061219871029964,-0.018493222527673266,-0.004699597804062183,0.999732623773228,0.0,0.0011111111111111111,0.0,0.05,0.02,-0.27
2025-01-03 09:41:31.256408,-0.013061219871029964,-0.018493222527673266,-0.004699597804062183,0.999732623773228,-0.0022222222222222222,0.0,0.0,0.0,-0.05,-0.41
2025-01-03 09:41:31.269503,-0.013061219871029964,-0.018493222527673266,-0.004699597804062183,0.999732623773228,0.0,0.0022222222222222222,0.0,-0.08,-0.09,-0.37
2025-01-03 09:41:31.281474,-0.013061219871029964,-0.018493222527673266,-0.004699597804062183,0.999732623773228,-0.0022222222222222222,0.0033333333333333335,-0.0011111111111111111,-0.04,-0.05,-0.33
2025-01-03 09:41:31.293350,-0.013061219871029964,-0.018493222527673266,-0.004699597804062183,0.999732623773228,0.0,0.0,0.0,-0.02,-0.09,-0.36
2025-01-03 09:41:31.303632,-0.013061219871029964,-0.018493222527673266,-0.004699597804062183,0.999732623773228,0.0,0.0011111111111111111,-0.0022222222222222222,-0.05,-0.01,-0.33
2025-01-03 09:41:31.317132,-0.013061219871029964,-0.018493222527673266,-0.004699597804062183,0.999732623773228,0.0,0.0,-0.0011111111111111111,-0.06,-0.06,-0.35
2025-01-03 09:41:31.329645,-0.013061219871029964,-0.018493222527673266,-0.004699597804062183,0.999732623773228,0.0011111111111111111,-0.0022222222222222222,0.0,-0.06,0.01,-0.34
2025-01-03 09:41:31.345375,-0.013061219871029964,-0.018493222527673266,-0.004699597804062183,0.999732623773228,0.0011111111111111111,-0.0011111111111111111,0.0,0.01,-0.01,-0.33
2025-01-03 09:41:31.356618,-0.013061219871029964,-0.018493222527673266,-0.004699597804062183,0.999732623773228,0.0,0.0,0.0011111111111111111,-0.03,0.05,-0.34
2025-01-03 09:41:31.370185,-0.013061219871029964,-0.018493222527673266,-0.004699597804062183,0.999732623773228,0.0,-0.0011111111111111111,0.0,0.07,0.0,-0.35
2025-01-03 09:41:31.382323,-0.013061219871029964,-0.018493222527673266,-0.004699597804062183,0.999732623773228,0.0,0.0,0.0033333333333333335,-0.02,-0.04,-0.39
2025-01-03 09:41:31.394077,-0.013061219871029964,-0.018493222527673266,-0.004699597804062183,0.999732623773228,-0.0044444444444444444,0.0022222222222222222,0.0,0.03,-0.05,-0.35
2025-01-03 09:41:31.403262,-0.013061219871029964,-0.018493222527673266,-0.004699597804062183,0.999732623773228,-0.0011111111111111111,0.0044444444444444444,0.0,0.03,-0.05,-0.33
2025-01-03 09:41:31.418256,-0.013061219871029964,-0.018493222527673266,-0.004699597804062183,0.999732623773228,0.0011111111111111111,0.0022222222222222222,0.0,-0.03,-0.06,-0.33
2025-01-03 09:41:31.432511,-0.013061219871029964,-0.018493222527673266,-0.004699597804062183,0.999732623773228,0.0,0.0022222222222222222,0.0,-0.06,-0.04,-0.3
2025-01-03 09:41:31.443588,0.8932609210001868,-0.008314126038675942,-0.002112830709498507,0.44945671456604597,0.0022222222222222222,0.0,0.0,-0.1,-0.01,-0.36
2025-01-03 09:41:31.458709,-0.013061219871029964,-0.018493222527673266,-0.004699597804062183,0.999732623773228,0.0011111111111111111,-0.0011111111111111111,0.0,-0.05,0.03,-0.37
2025-01-03 09:41:31.472430,-0.013061219871029964,-0.018493222527673266,-0.004699597804062183,0.999732623773228,0.0022222222222222222,-0.0022222222222222222,0.0,-0.01,-0.01,-0.39
2025-01-03 09:41:31.483426,-0.013061219871029964,-0.018493222527673266,-0.004699597804062183,0.999732623773228,0.0022222222222222222,-0.0011111111111111111,0.0,0.04,-0.06,-0.32
2025-01-03 09:41:31.496194,-0.013061219871029964,-0.018493222527673266,-0.004699597804062183,0.999732623773228,-0.0044444444444444444,-0.0011111111111111111,0.0,0.0,0.04,-0.31
2025-01-03 09:41:31.507681,-0.013061219871029964,-0.018493222527673266,-0.004699597804062183,0.999732623773228,0.0011111111111111111,0.0,0.0011111111111111111,0.04,-0.06,-0.36
2025-01-03 09:41:31.520220,-0.013061219871029964,-0.018493222527673266,-0.004699597804062183,0.999732623773228,-0.0033333333333333335,0.0,0.0,0.02,0.01,-0.39
2025-01-03 09:41:31.533331,-0.013061219871029964,-0.018493222527673266,-0.004699597804062183,0.999732623773228,-0.0033333333333333335,0.0011111111111111111,-0.0011111111111111111,0.05,-0.09,-0.26
2025-01-03 09:41:31.545950,-0.013061219871029964,-0.018493222527673266,-0.004699597804062183,0.999732623773228,0.0,0.0,0.0,-0.06,-0.04,-0.44
2025-01-03 09:41:31.557759,-0.013061219871029964,-0.018493222527673266,-0.004699597804062183,0.999732623773228,-0.0011111111111111111,0.0022222222222222222,0.0,-0.04,-0.08,-0.25
2025-01-03 09:41:31.573485,-0.013061219871029964,-0.018493222527673266,-0.004699597804062183,0.999732623773228,0.0,0.0,0.0,-0.12,-0.02,-0.31
2025-01-03 09:41:31.585192,-0.013061219871029964,-0.018493222527673266,-0.004699597804062183,0.999732623773228,0.0022222222222222222,-0.0022222222222222222,0.0,-0.05,-0.06,-0.32
2025-01-03 09:41:31.597391,-0.013061219871029964,-0.018493222527673266,-0.004699597804062183,0.999732623773228,0.0011111111111111111,-0.0022222222222222222,-0.0011111111111111111,-0.08,0.01,-0.32
2025-01-03 09:41:31.605337,-0.013061219871029964,-0.018493222527673266,-0.004699597804062183,0.999732623773228,0.0011111111111111111,-0.0022222222222222222,-0.0011111111111111111,-0.03,-0.03,-0.38
2025-01-03 09:41:31.618970,-0.013061219871029964,-0.018493222527673266,-0.004699597804062183,0.999732623773228,0.0022222222222222222,-0.005555555555555556,0.0,0.0,-0.01,-0.33
2025-01-03 09:41:31.631830,-0.013061219871029964,-0.018493222527673266,-0.004699597804062183,0.999732623773228,0.0,-0.0022222222222222222,-0.0011111111111111111,0.06,-0.06,-0.38
2025-01-03 09:41:31.643810,-0.013061219871029964,-0.018493222527673266,-0.004699597804062183,0.999732623773228,0.0,0.0,0.0,0.03,0.02,-0.34
2025-01-03 09:41:31.655937,-0.013061219871029964,-0.018493222527673266,-0.004699597804062183,0.999732623773228,-0.0022222222222222222,0.0011111111111111111,0.0,-0.01,-0.02,-0.31
2025-01-03 09:41:31.665241,-0.013061219871029964,-0.018493222527673266,-0.004699597804062183,0.999732623773228,-0.0011111111111111111,0.0,0.0,0.05,-0.05,-0.34
2025-01-03 09:41:31.678892,-0.013061219871029964,-0.018493222527673266,-0.004699597804062183,0.999732623773228,-0.0011111111111111111,0.0,0.0,-0.07,-0.04,-0.37
2025-01-03 09:41:31.693269,-0.013061219871029964,-0.018493222527673266,-0.004699597804062183,0.999732623773228,-0.0011111111111111111,0.0033333333333333335,-0.0022222222222222222,-0.03,-0.06,-0.37
2025-01-03 09:41:31.705397,-0.013061219871029964,-0.018493222527673266,-0.004699597804062183,0.999732623773228,0.0,0.0011111111111111111,0.0011111111111111111,-0.13,-0.03,-0.32
2025-01-03 09:41:31.718486,-0.013061219871029964,-0.018493222527673266,-0.004699597804062183,0.999732623773228,0.0022222222222222222,0.0,0.0,-0.05,-0.03,-0.34
2025-01-03 09:41:31.733911,-0.013061219871029964,-0.018493222527673266,-0.004699597804062183,0.999732623773228,0.0022222222222222222,0.0,0.0011111111111111111,-0.07,-0.03,-0.35
2025-01-03 09:41:31.742902,-0.013061219871029964,-0.018493222527673266,-0.004699597804062183,0.999732623773228,0.0,0.0,0.0,0.01,-0.02,-0.38
2025-01-03 09:41:31.754033,-0.013061219871029964,-0.018493222527673266,-0.004699597804062183,0.999732623773228,0.0,-0.0011111111111111111,0.0,0.01,0.01,-0.35
2025-01-03 09:41:31.769356,-0.013061219871029964,-0.018493222527673266,-0.004699597804062183,0.999732623773228,0.0,-0.0022222222222222222,0.0,-0.02,0.08,-0.32
2025-01-03 09:41:31.783474,-0.013061219871029964,-0.018493222527673266,-0.004699597804062183,0.999732623773228,-0.0022222222222222222,0.0,0.0011111111111111111,0.0,-0.01,-0.32
2025-01-03 09:41:31.798678,-0.013061219871029964,-0.018493222527673266,-0.004699597804062183,0.999732623773228,0.0,0.0,0.0,0.05,-0.03,-0.39
2025-01-03 09:41:31.815917,-0.013061219871029964,-0.018493222527673266,-0.004699597804062183,0.999732623773228,0.0,0.0,0.0,-0.05,-0.06,-0.31
2025-01-03 09:41:31.825079,-0.013061219871029964,-0.018493222527673266,-0.004699597804062183,0.999732623773228,0.0,0.0033333333333333335,0.0,0.0,-0.09,-0.38
2025-01-03 09:41:31.837483,-0.013061219871029964,-0.018493222527673266,-0.004699597804062183,0.999732623773228,0.0011111111111111111,0.0022222222222222222,0.0,-0.06,-0.04,-0.33
2025-01-03 09:41:31.851265,-0.013061219871029964,-0.018493222527673266,-0.004699597804062183,0.999732623773228,0.0011111111111111111,0.0011111111111111111,0.0,-0.12,-0.03,-0.3
2025-01-03 09:41:31.863113,-0.013061219871029964,-0.018493222527673266,-0.004699597804062183,0.999732623773228,0.0011111111111111111,-0.0011111111111111111,-0.0033333333333333335,-0.1,0.04,-0.33
2025-01-03 09:41:31.877866,-0.013061219871029964,-0.018493222527673266,-0.004699597804062183,0.999732623773228,0.0011111111111111111,0.0,0.0,-0.08,-0.01,-0.38
2025-01-03 09:41:31.892545,-0.013061219871029964,-0.018493222527673266,-0.004699597804062183,0.999732623773228,0.0,-0.0044444444444444444,0.0,0.03,0.01,-0.37
2025-01-03 09:41:31.906107,-0.013061219871029964,-0.018493222527673266,-0.004699597804062183,0.999732623773228,0.0,-0.0011111111111111111,0.0,0.03,0.0,-0.36
2025-01-03 09:41:31.922418,-0.013061219871029964,-0.018493222527673266,-0.004699597804062183,0.999732623773228,0.0,0.0033333333333333335,-0.0022222222222222222,0.02,0.02,-0.32
2025-01-03 09:41:31.939332,-0.013061219871029964,-0.018493222527673266,-0.004699597804062183,0.999732623773228,0.0,0.0022222222222222222,0.0,0.02,-0.06,-0.35
2025-01-03 09:41:31.953596,-0.013061219871029964,-0.018493222527673266,-0.004699597804062183,0.999732623773228,0.0,0.0033333333333333335,0.0,0.0,-0.08,-0.3
2025-01-03 09:41:31.965396,-0.013061219871029964,-0.018493222527673266,-0.004699597804062183,0.999732623773228,0.0,0.0,0.0,-0.07,-0.04,-0.39
2025-01-03 09:41:31.980354,-0.013061219871029964,-0.018493222527673266,-0.004699597804062183,0.999732623773228,0.0,0.0011111111111111111,0.0,-0.09,-0.07,-0.27
2025-01-03 09:41:31.994171,-0.013061219871029964,-0.018493222527673266,-0.004699597804062183,0.999732623773228,0.0,0.0011111111111111111,0.0,-0.08,0.03,-0.4
2025-01-03 09:41:32.007115,-0.013061219871029964,-0.018493222527673266,-0.004699597804062183,0.999732623773228,0.0,-0.0022222222222222222,0.0,-0.07,-0.01,-0.29
2025-01-03 09:41:32.021839,-0.013061219871029964,-0.018493222527673266,-0.004699597804062183,0.999732623773228,0.0022222222222222222,-0.0011111111111111111,0.0,0.01,0.02,-0.36
2025-01-03 09:41:32.036278,-0.013061219871029964,-0.018493222527673266,-0.004699597804062183,0.999732623773228,0.0011111111111111111,-0.0011111111111111111,0.0,0.01,0.0,-0.33
2025-01-03 09:41:32.052135,-0.013061219871029964,-0.018493222527673266,-0.004699597804062183,0.999732623773228,0.0,0.0,0.0,0.04,0.0,-0.37
2025-01-03 09:41:32.065959,-0.013061219871029964,-0.018493222527673266,-0.004699597804062183,0.999732623773228,0.0,0.0044444444444444444,0.0,0.02,0.0,-0.34
2025-01-03 09:41:32.081526,-0.013061219871029964,-0.018493222527673266,-0.004699597804062183,0.999732623773228,-0.0033333333333333335,0.0011111111111111111,0.0,0.0,-0.04,-0.3
2025-01-03 09:41:32.094104,-0.013061219871029964,-0.018493222527673266,-0.004699597804062183,0.999732623773228,-0.0022222222222222222,0.0011111111111111111,0.0,0.0,-0.08,-0.32
2025-01-03 09:41:32.106352,-0.013061219871029964,-0.018493222527673266,-0.004699597804062183,0.999732623773228,0.0011111111111111111,0.0,0.0,-0.12,-0.02,-0.33
2025-01-03 09:41:32.119001,-0.013061219871029964,-0.018493222527673266,-0.004699597804062183,0.999732623773228,0.0,0.0,0.0,-0.04,-0.03,-0.33
2025-01-03 09:41:32.131900,-0.013061219871029964,-0.018493222527673266,-0.004699597804062183,0.999732623773228,0.0022222222222222222,-0.0011111111111111111,0.0,-0.04,-0.02,-0.37
2025-01-03 09:41:32.143509,-0.013061219871029964,-0.018493222527673266,-0.004699597804062183,0.999732623773228,0.0022222222222222222,0.0,0.0,0.0,0.02,-0.32
2025-01-03 09:41:32.155387,-0.013061219871029964,-0.018493222527673266,-0.004699597804062183,0.999732623773228,0.0022222222222222222,-0.0022222222222222222,0.0011111111111111111,0.0,0.01,-0.32
2025-01-03 09:41:32.167471,-0.013061219871029964,-0.018493222527673266,-0.004699597804062183,0.999732623773228,0.0,0.0,0.0,-0.06,-0.01,-0.34
2025-01-03 09:41:32.181436,-0.013061219871029964,-0.018493222527673266,-0.004699597804062183,0.999732623773228,-0.0022222222222222222,-0.0011111111111111111,0.0,0.02,0.01,-0.38
2025-01-03 09:41:32.194933,-0.013061219871029964,-0.018493222527673266,-0.004699597804062183,0.999732623773228,0.0,0.0011111111111111111,0.0022222222222222222,0.01,-0.05,-0.35
2025-01-03 09:41:32.207083,-0.013061219871029964,-0.018493222527673266,-0.004699597804062183,0.999732623773228,0.0,0.0011111111111111111,0.0,0.0,-0.03,-0.3
2025-01-03 09:41:32.217333,-0.013061219871029964,-0.018493222527673266,-0.004699597804062183,0.999732623773228,0.0,0.0033333333333333335,0.0,-0.03,-0.06,-0.35
2025-01-03 09:41:32.230386,-0.013061219871029964,-0.018493222527673266,-0.004699597804062183,0.999732623773228,0.0,0.0022222222222222222,-0.0011111111111111111,0.0,-0.11,-0.33
2025-01-03 09:41:32.245124,-0.013061219871029964,-0.018493222527673266,-0.004699597804062183,0.999732623773228,0.0,0.0011111111111111111,0.0,-0.05,-0.04,-0.38
2025-01-03 09:41:32.257728,-0.013061219871029964,-0.018493222527673266,-0.004699597804062183,0.999732623773228,0.0022222222222222222,0.0,0.0,-0.03,-0.03,-0.3
2025-01-03 09:41:32.272375,-0.013061219871029964,-0.018493222527673266,-0.004699597804062183,0.999732623773228,0.0011111111111111111,0.0,0.0,-0.09,0.04,-0.34
2025-01-03 09:41:32.285343,-0.013061219871029964,-0.018493222527673266,-0.004699597804062183,0.999732623773228,0.0022222222222222222,0.0,0.0,-0.03,-0.01,-0.33
2025-01-03 09:41:32.297303,-0.013061219871029964,-0.018493222527673266,-0.004699597804062183,0.999732623773228,0.0022222222222222222,-0.0022222222222222222,-0.0011111111111111111,-0.04,0.01,-0.34
2025-01-03 09:41:32.307840,-0.013061219871029964,-0.018493222527673266,-0.004699597804062183,0.999732623773228,-0.0044444444444444444,-0.0022222222222222222,0.0,0.02,0.05,-0.34
2025-01-03 09:41:32.321947,-0.013061219871029964,-0.018493222527673266,-0.004699597804062183,0.999732623773228,0.0,0.0,0.0022222222222222222,0.0,0.04,-0.33
2025-01-03 09:41:32.334867,-0.013061219871029964,-0.018493222527673266,-0.004699597804062183,0.999732623773228,-0.0022222222222222222,0.0,0.0,0.04,0.01,-0.39
2025-01-03 09:41:32.347312,-0.013061219871029964,-0.018493222527673266,-0.004699597804062183,0.999732623773228,0.0,0.0,0.0,0.01,-0.06,-0.24
2025-01-03 09:41:32.357459,-0.013061219871029964,-0.018493222527673266,-0.004699597804062183,0.999732623773228,0.0,0.0011111111111111111,0.0,0.01,-0.08,-0.26
2025-01-03 09:41:32.369947,-0.013061219871029964,-0.018493222527673266,-0.004699597804062183,0.999732623773228,0.0,0.0,0.0,-0.06,-0.05,-0.39
2025-01-03 09:41:32.383609,-0.013061219871029964,-0.018493222527673266,-0.004699597804062183,0.999732623773228,0.0,0.0,-0.0011111111111111111,-0.08,-0.05,-0.31
2025-01-03 09:41:32.395932,-0.013061219871029964,-0.018493222527673266,-0.004699597804062183,0.999732623773228,0.0,0.0022222222222222222,0.0,-0.1,0.06,-0.32
2025-01-03 09:41:32.406944,-0.013061219871029964,-0.018493222527673266,-0.004699597804062183,0.999732623773228,0.0,0.0,0.0,-0.07,0.0,-0.34
2025-01-03 09:41:32.420021,-0.013061219871029964,-0.018493222527673266,-0.004699597804062183,0.999732623773228,0.0033333333333333335,0.0,0.0,0.01,0.0,-0.34
2025-01-03 09:41:32.433994,-0.013061219871029964,-0.018493222527673266,-0.004699597804062183,0.999732623773228,0.0011111111111111111,-0.0022222222222222222,0.0,-0.04,0.0,-0.36
2025-01-03 09:41:32.445563,-0.013061219871029964,-0.018493222527673266,-0.004699597804062183,0.999732623773228,0.0,0.0011111111111111111,0.0,0.0,-0.01,-0.33
2025-01-03 09:41:32.459109,-0.013061219871029964,-0.018493222527673266,-0.004699597804062183,0.999732623773228,0.0,-0.0011111111111111111,0.0011111111111111111,0.0,0.0,-0.36
2025-01-03 09:41:32.473895,-0.013061219871029964,-0.018493222527673266,-0.004699597804062183,0.999732623773228,0.0,0.0044444444444444444,0.0022222222222222222,0.05,-0.02,-0.36
2025-01-03 09:41:32.483170,-0.013061219871029964,-0.018493222527673266,-0.004699597804062183,0.999732623773228,-0.0022222222222222222,0.0,0.0011111111111111111,-0.02,-0.04,-0.27
2025-01-03 09:41:32.495921,-0.013061219871029964,-0.018493222527673266,-0.004699597804062183,0.999732623773228,-0.0011111111111111111,0.0022222222222222222,0.0,-0.03,-0.01,-0.35
2025-01-03 09:41:32.509603,-0.013061219871029964,-0.018493222527673266,-0.004699597804062183,0.999732623773228,-0.0011111111111111111,0.0022222222222222222,0.0,-0.07,-0.06,-0.33
2025-01-03 09:41:32.518564,-0.013061219871029964,-0.018493222527673266,-0.004699597804062183,0.999732623773228,0.0,0.0,0.0,-0.05,-0.1,-0.36
2025-01-03 09:41:32.531431,-0.013061219871029964,-0.018493222527673266,-0.004699597804062183,0.999732623773228,0.0011111111111111111,-0.0022222222222222222,-0.0011111111111111111,-0.06,-0.01,-0.3
2025-01-03 09:41:32.544661,-0.013061219871029964,-0.018493222527673266,-0.004699597804062183,0.999732623773228,0.0022222222222222222,0.0,-0.0011111111111111111,0.0,0.0,-0.35
2025-01-03 09:41:32.557399,-0.013061219871029964,-0.018493222527673266,-0.004699597804062183,0.999732623773228,0.0,0.0,0.0,-0.06,0.0,-0.35
2025-01-03 09:41:32.568483,-0.013061219871029964,-0.018493222527673266,-0.004699597804062183,0.999732623773228,0.0,-0.0011111111111111111,0.0,0.0,0.05,-0.35
2025-01-03 09:41:32.581087,-0.013061219871029964,-0.018493222527673266,-0.004699597804062183,0.999732623773228,-0.0022222222222222222,-0.0022222222222222222,0.0,0.0,-0.04,-0.31
2025-01-03 09:41:32.595414,-0.013061219871029964,-0.018493222527673266,-0.004699597804062183,0.999732623773228,0.0022222222222222222,-0.0022222222222222222,0.0033333333333333335,0.0,0.01,-0.37
2025-01-03 09:41:32.607015,-0.013061219871029964,-0.018493222527673266,-0.004699597804062183,0.999732623773228,-0.0033333333333333335,0.0011111111111111111,0.0,0.0,-0.05,-0.27
2025-01-03 09:41:32.619585,-0.013061219871029964,-0.018493222527673266,-0.004699597804062183,0.999732623773228,-0.0022222222222222222,0.0011111111111111111,0.0,-0.02,-0.09,-0.38
2025-01-03 09:41:32.634245,-0.013061219871029964,-0.018493222527673266,-0.004699597804062183,0.999732623773228,0.0,0.0033333333333333335,-0.0011111111111111111,0.04,-0.05,-0.32
2025-01-03 09:41:32.646084,-0.013061219871029964,-0.018493222527673266,-0.004699597804062183,0.999732623773228,-0.0011111111111111111,0.0011111111111111111,0.0,-0.06,-0.06,-0.25
2025-01-03 09:41:32.658449,-0.013061219871029964,-0.018493222527673266,-0.004699597804062183,0.999732623773228,0.0011111111111111111,0.0,0.0,-0.02,-0.01,-0.37
2025-01-03 09:41:32.671501,-0.013061219871029964,-0.018493222527673266,-0.004699597804062183,0.999732623773228,0.0022222222222222222,0.0,0.0,-0.06,0.02,-0.25
2025-01-03 09:41:32.685077,-0.013061219871029964,-0.018493222527673266,-0.004699597804062183,0.999732623773228,0.0,-0.0033333333333333335,-0.0033333333333333335,0.0,0.03,-0.36
2025-01-03 09:41:32.698109,-0.013061219871029964,-0.018493222527673266,-0.004699597804062183,0.999732623773228,0.0022222222222222222,0.0,0.0,0.01,-0.02,-0.35
2025-01-03 09:41:32.709415,-0.013061219871029964,-0.018493222527673266,-0.004699597804062183,0.999732623773228,0.0,0.0,-0.0011111111111111111,0.04,-0.01,-0.33
2025-01-03 09:41:32.721340,-0.013061219871029964,-0.018493222527673266,-0.004699597804062183,0.999732623773228,0.0,-0.0011111111111111111,0.0,0.0,0.0,-0.36
2025-01-03 09:41:32.734662,-0.013061219871029964,-0.018493222527673266,-0.004699597804062183,0.999732623773228,0.0011111111111111111,0.0,0.0,0.04,0.01,-0.32
2025-01-03 09:41:32.746998,-0.013061219871029964,-0.018493222527673266,-0.004699597804062183,0.999732623773228,-0.0011111111111111111,0.0,0.0011111111111111111,-0.02,-0.06,-0.31
2025-01-03 09:41:32.758460,-0.013061219871029964,-0.018493222527673266,-0.004699597804062183,0.999732623773228,0.0,0.0033333333333333335,-0.0011111111111111111,0.0,-0.08,-0.39
2025-01-03 09:41:32.773277,-0.013061219871029964,-0.018493222527673266,-0.004699597804062183,0.999732623773228,0.0,0.0011111111111111111,0.0,-0.03,-0.03,-0.29
2025-01-03 09:41:32.784914,-0.013061219871029964,-0.018493222527673266,-0.004699597804062183,0.999732623773228,0.0,0.0011111111111111111,0.0011111111111111111,-0.11,-0.07,-0.36
2025-01-03 09:41:32.797462,-0.013061219871029964,-0.018493222527673266,-0.004699597804062183,0.999732623773228,0.0022222222222222222,0.0011111111111111111,0.0,-0.07,-0.02,-0.3
2025-01-03 09:41:32.809125,-0.013061219871029964,-0.018493222527673266,-0.004699597804062183,0.999732623773228,0.0033333333333333335,0.0,0.0,-0.08,0.05,-0.37
2025-01-03 09:41:32.821900,-0.013061219871029964,-0.018493222527673266,-0.004699597804062183,0.999732623773228,0.0011111111111111111,-0.0022222222222222222,0.0,-0.03,0.03,-0.38
2025-01-03 09:41:32.835726,-0.013061219871029964,-0.018493222527673266,-0.004699597804062183,0.999732623773228,0.0022222222222222222,-0.0044444444444444444,-0.0011111111111111111,0.0,-0.04,-0.28
2025-01-03 09:41:32.847750,-0.013061219871029964,-0.018493222527673266,-0.004699597804062183,0.999732623773228,0.0,-0.0044444444444444444,0.0,0.04,-0.04,-0.3
2025-01-03 09:41:32.859246,-0.013061219871029964,-0.018493222527673266,-0.004699597804062183,0.999732623773228,0.0,0.0,0.0,0.04,-0.06,-0.27
2025-01-03 09:41:32.872553,-0.013061219871029964,-0.018493222527673266,-0.004699597804062183,0.999732623773228,-0.0022222222222222222,0.0,0.0,0.04,-0.08,-0.38
2025-01-03 09:41:32.886188,-0.013061219871029964,-0.018493222527673266,-0.004699597804062183,0.999732623773228,0.0,0.0,0.0011111111111111111,0.01,-0.01,-0.25
2025-01-03 09:41:32.898188,-0.013061219871029964,-0.018493222527673266,-0.004699597804062183,0.999732623773228,-0.0011111111111111111,0.0011111111111111111,0.0,-0.01,-0.09,-0.32
2025-01-03 09:41:32.909368,-0.013061219871029964,-0.018493222527673266,-0.004699597804062183,0.999732623773228,0.0,0.0,0.0,-0.09,-0.03,-0.32
2025-01-03 09:41:32.921655,-0.013061219871029964,-0.018493222527673266,-0.004699597804062183,0.999732623773228,0.0,0.0,0.0,-0.08,-0.07,-0.31
2025-01-03 09:41:32.935174,-0.013061219871029964,-0.018493222527673266,-0.004699597804062183,0.999732623773228,0.0011111111111111111,0.0,0.0,-0.09,0.0,-0.29
2025-01-03 09:41:32.948627,-0.013061219871029964,-0.018493222527673266,-0.004699597804062183,0.999732623773228,0.0022222222222222222,0.0,0.0,0.0,-0.03,-0.32
2025-01-03 09:41:32.959509,-0.013061219871029964,-0.018493222527673266,-0.004699597804062183,0.999732623773228,0.0,-0.0022222222222222222,0.0,-0.01,0.04,-0.35
2025-01-03 09:41:32.971925,-0.013061219871029964,-0.018493222527673266,-0.004699597804062183,0.999732623773228,0.0,-0.0011111111111111111,0.0,0.0,-0.01,-0.36
2025-01-03 09:41:32.985163,-0.013061219871029964,-0.018493222527673266,-0.004699597804062183,0.999732623773228,0.0,0.0,0.0,0.04,0.05,-0.3
2025-01-03 09:41:32.998585,-0.013061219871029964,-0.018493222527673266,-0.004699597804062183,0.999732623773228,-0.0011111111111111111,0.0,0.0,0.07,-0.09,-0.36
2025-01-03 09:41:33.009904,-0.013061219871029964,-0.018493222527673266,-0.004699597804062183,0.999732623773228,-0.0022222222222222222,0.0,0.0011111111111111111,0.02,0.0,-0.36
2025-01-03 09:41:33.022367,-0.013061219871029964,-0.018493222527673266,-0.004699597804062183,0.999732623773228,-0.0022222222222222222,0.0022222222222222222,0.0,-0.01,-0.08,-0.29
2025-01-03 09:41:33.035970,-0.013061219871029964,-0.018493222527673266,-0.004699597804062183,0.999732623773228,0.0,0.0011111111111111111,0.0,-0.02,-0.1,-0.41
2025-01-03 09:41:33.049553,-0.013061219871029964,-0.018493222527673266,-0.004699597804062183,0.999732623773228,0.0,0.0,0.0,-0.08,-0.09,-0.32
2025-01-03 09:41:33.060609,-0.013061219871029964,-0.018493222527673266,-0.004699597804062183,0.999732623773228,0.0022222222222222222,0.0,0.0,-0.02,-0.02,-0.34
2025-01-03 09:41:33.073012,-0.013061219871029964,-0.018493222527673266,-0.004699597804062183,0.999732623773228,0.0011111111111111111,0.0011111111111111111,0.0,-0.08,0.0,-0.29
2025-01-03 09:41:33.085656,-0.013061219871029964,-0.018493222527673266,-0.004699597804062183,0.999732623773228,0.0,0.0,0.0,0.0,-0.01,-0.3
2025-01-03 09:41:33.098821,-0.013061219871029964,-0.018493222527673266,-0.004699597804062183,0.999732623773228,0.0011111111111111111,0.0,0.0,-0.02,0.0,-0.28
2025-01-03 09:41:33.110627,-0.013061219871029964,-0.018493222527673266,-0.004699597804062183,0.999732623773228,0.0,-0.0011111111111111111,0.0,0.08,0.01,-0.29
2025-01-03 09:41:33.123512,-0.013061219871029964,-0.018493222527673266,-0.004699597804062183,0.999732623773228,-0.0011111111111111111,0.0,0.0,0.03,0.01,-0.37
2025-01-03 09:41:33.137965,-0.013061219871029964,-0.018493222527673266,-0.004699597804062183,0.999732623773228,0.0,-0.0011111111111111111,0.0,0.0,-0.02,-0.28
2025-01-03 09:41:33.150815,-0.013061219871029964,-0.018493222527673266,-0.004699597804062183,0.999732623773228,0.0,0.0044444444444444444,0.0,-0.01,-0.04,-0.32
2025-01-03 09:41:33.161352,-0.013061219871029964,-0.018493222527673266,-0.004699597804062183,0.999732623773228,0.0,0.0022222222222222222,0.0,-0.05,-0.1,-0.37
2025-01-03 09:41:33.176096,-0.013061219871029964,-0.018493222527673266,-0.004699597804062183,0.999732623773228,0.0,0.0033333333333333335,0.0,0.0,-0.07,-0.32
2025-01-03 09:41:33.187061,-0.013061219871029964,-0.018493222527673266,-0.004699597804062183,0.999732623773228,-0.0011111111111111111,0.0011111111111111111,0.0,-0.1,-0.08,-0.36
2025-01-03 09:41:33.199096,-0.013061219871029964,-0.018493222527673266,-0.004699597804062183,0.999732623773228,0.0,0.0,0.0011111111111111111,-0.08,0.01,-0.28
2025-01-03 09:41:33.210803,-0.013061219871029964,-0.018493222527673266,-0.004699597804062183,0.999732623773228,0.0,-0.0022222222222222222,0.0,-0.09,0.04,-0.37
2025-01-03 09:41:33.223192,-0.013061219871029964,-0.018493222527673266,-0.004699597804062183,0.999732623773228,0.0011111111111111111,-0.0011111111111111111,-0.0011111111111111111,0.0,0.03,-0.35
2025-01-03 09:41:33.236301,-0.013061219871029964,-0.018493222527673266,-0.004699597804062183,0.999732623773228,0.0022222222222222222,-0.005555555555555556,0.0,-0.03,0.01,-0.3
2025-01-03 09:41:33.249484,-0.013061219871029964,-0.018493222527673266,-0.004699597804062183,0.999732623773228,0.0022222222222222222,-0.0044444444444444444,0.0,0.01,0.0,-0.35
2025-01-03 09:41:33.260634,-0.013061219871029964,-0.018493222527673266,-0.004699597804062183,0.999732623773228,0.0,0.0,0.0,-0.01,0.01,-0.3
2025-01-03 09:41:33.274420,-0.013061219871029964,-0.018493222527673266,-0.004699597804062183,0.999732623773228,-0.0033333333333333335,-0.0011111111111111111,0.0,0.03,-0.07,-0.36
2025-01-03 09:41:33.287247,-0.013061219871029964,-0.018493222527673266,-0.004699597804062183,0.999732623773228,-0.0022222222222222222,0.0022222222222222222,0.0033333333333333335,0.05,-0.01,-0.37
2025-01-03 09:41:33.300125,-0.013061219871029964,-0.018493222527673266,-0.004699597804062183,0.999732623773228,0.0,0.0033333333333333335,0.0,0.0,-0.05,-0.28
2025-01-03 09:41:33.311603,-0.013061219871029964,-0.018493222527673266,-0.004699597804062183,0.999732623773228,0.0011111111111111111,0.0,0.0,-0.04,-0.03,-0.37
2025-01-03 09:41:33.325857,-0.013061219871029964,-0.018493222527673266,-0.004699597804062183,0.999732623773228,0.0,0.0,0.0011111111111111111,-0.11,-0.1,-0.3
2025-01-03 09:41:33.339577,-0.013061219871029964,-0.018493222527673266,-0.004699597804062183,0.999732623773228,0.0022222222222222222,-0.0011111111111111111,-0.0022222222222222222,-0.09,0.07,-0.36
2025-01-03 09:41:33.353280,-0.013061219871029964,-0.018493222527673266,-0.004699597804062183,0.999732623773228,0.0011111111111111111,-0.0022222222222222222,0.0,-0.05,-0.02,-0.29
2025-01-03 09:41:33.363154,-0.013061219871029964,-0.018493222527673266,-0.004699597804062183,0.999732623773228,0.0022222222222222222,-0.0011111111111111111,-0.0011111111111111111,0.0,0.0,-0.29
2025-01-03 09:41:33.376242,-0.013061219871029964,-0.018493222527673266,-0.004699597804062183,0.999732623773228,0.0,-0.0022222222222222222,-0.0022222222222222222,-0.04,0.02,-0.33
2025-01-03 09:41:33.389476,-0.013061219871029964,-0.018493222527673266,-0.004699597804062183,0.999732623773228,0.0,-0.0022222222222222222,-0.0022222222222222222,0.08,0.0,-0.39
2025-01-03 09:41:33.402494,-0.013061219871029964,-0.018493222527673266,-0.004699597804062183,0.999732623773228,0.0,-0.0011111111111111111,0.0,0.04,-0.06,-0.4
2025-01-03 09:41:33.413028,-0.013061219871029964,-0.018493222527673266,-0.004699597804062183,0.999732623773228,-0.0011111111111111111,0.0022222222222222222,0.0,0.06,-0.02,-0.34
2025-01-03 09:41:33.426132,-0.013061219871029964,-0.018493222527673266,-0.004699597804062183,0.999732623773228,-0.0011111111111111111,0.0,0.0,0.0,-0.07,-0.31
2025-01-03 09:41:33.439827,-0.013061219871029964,-0.018493222527673266,-0.004699597804062183,0.999732623773228,-0.0022222222222222222,0.0011111111111111111,0.0,-0.05,-0.06,-0.37
2025-01-03 09:41:33.453090,-0.013061219871029964,-0.018493222527673266,-0.004699597804062183,0.999732623773228,0.0,0.0022222222222222222,-0.0011111111111111111,-0.09,-0.05,-0.28
2025-01-03 09:41:33.463345,-0.013061219871029964,-0.018493222527673266,-0.004699597804062183,0.999732623773228,0.0011111111111111111,0.0,0.0,-0.08,-0.05,-0.39
2025-01-03 09:41:33.477051,-0.013061219871029964,-0.018493222527673266,-0.004699597804062183,0.999732623773228,0.0011111111111111111,0.0,0.0,-0.08,0.08,-0.34
2025-01-03 09:41:33.491108,-0.013061219871029964,-0.018493222527673266,-0.004699597804062183,0.999732623773228,0.0011111111111111111,0.0,0.0,0.0,0.01,-0.36
2025-01-03 09:41:33.503445,-0.013061219871029964,-0.018493222527673266,-0.004699597804062183,0.999732623773228,0.0,-0.0022222222222222222,0.0,0.0,-0.01,-0.35
2025-01-03 09:41:33.514211,-0.013061219871029964,-0.018493222527673266,-0.004699597804062183,0.999732623773228,0.0,-0.0022222222222222222,0.0,0.0,0.01,-0.32
2025-01-03 09:41:33.527316,-0.013061219871029964,-0.018493222527673266,-0.004699597804062183,0.999732623773228,0.0,-0.0011111111111111111,0.0033333333333333335,0.07,-0.08,-0.37
2025-01-03 09:41:33.540809,-0.013061219871029964,-0.018493222527673266,-0.004699597804062183,0.999732623773228,0.0,-0.0011111111111111111,0.0033333333333333335,0.05,0.0,-0.4
2025-01-03 09:41:33.553180,-0.013061219871029964,-0.018493222527673266,-0.004699597804062183,0.999732623773228,0.0,0.0,0.0011111111111111111,0.03,-0.05,-0.25
2025-01-03 09:41:33.562978,-0.013061219871029964,-0.018493222527673266,-0.004699597804062183,0.999732623773228,0.0,0.0022222222222222222,0.0,-0.03,-0.04,-0.42
2025-01-03 09:41:33.575773,-0.013061219871029964,-0.018493222527673266,-0.004699597804062183,0.999732623773228,0.0011111111111111111,0.0011111111111111111,0.0,0.0,-0.07,-0.27
2025-01-03 09:41:33.590243,-0.013061219871029964,-0.018493222527673266,-0.004699597804062183,0.999732623773228,0.0022222222222222222,0.0011111111111111111,0.0,-0.11,-0.05,-0.29
2025-01-03 09:41:33.602912,-0.013061219871029964,-0.018493222527673266,-0.004699597804062183,0.999732623773228,0.0,0.0,0.0,-0.03,-0.06,-0.32
2025-01-03 09:41:33.614111,-0.013061219871029964,-0.018493222527673266,-0.004699597804062183,0.999732623773228,0.0011111111111111111,-0.0011111111111111111,0.0,-0.06,0.05,-0.28
2025-01-03 09:41:33.626889,-0.013061219871029964,-0.018493222527673266,-0.004699597804062183,0.999732623773228,0.0,-0.0022222222222222222,0.0,0.0,-0.03,-0.39
2025-01-03 09:41:33.641374,-0.013061219871029964,-0.018493222527673266,-0.004699597804062183,0.999732623773228,0.0022222222222222222,-0.0044444444444444444,0.0,-0.04,0.07,-0.36
2025-01-03 09:41:33.656817,-0.013061219871029964,-0.018493222527673266,-0.004699597804062183,0.999732623773228,0.0,-0.0011111111111111111,0.0,0.1,0.0,-0.37
2025-01-03 09:41:33.664148,-0.013061219871029964,-0.018493222527673266,-0.004699597804062183,0.999732623773228,-0.0011111111111111111,0.0,0.0011111111111111111,0.02,0.02,-0.27
2025-01-03 09:41:33.677300,-0.013061219871029964,-0.018493222527673266,-0.004699597804062183,0.999732623773228,-0.0011111111111111111,0.0033333333333333335,0.0,-0.02,-0.05,-0.4
2025-01-03 09:41:33.690969,-0.013061219871029964,-0.018493222527673266,-0.004699597804062183,0.999732623773228,-0.0022222222222222222,0.0,0.0,-0.02,-0.02,-0.39
2025-01-03 09:41:33.704535,-0.013061219871029964,-0.018493222527673266,-0.004699597804062183,0.999732623773228,0.0011111111111111111,0.0044444444444444444,0.0,-0.04,-0.1,-0.3
2025-01-03 09:41:33.714656,-0.013061219871029964,-0.018493222527673266,-0.004699597804062183,0.999732623773228,0.0,0.0011111111111111111,0.0,-0.04,-0.09,-0.37
2025-01-03 09:41:33.726777,-0.013061219871029964,-0.018493222527673266,-0.004699597804062183,0.999732623773228,0.0,0.0033333333333333335,0.0,-0.08,-0.02,-0.34
2025-01-03 09:41:33.740285,-0.013061219871029964,-0.018493222527673266,-0.004699597804062183,0.999732623773228,0.0,-0.0033333333333333335,0.0,-0.09,-0.08,-0.33
2025-01-03 09:41:33.753600,-0.013061219871029964,-0.018493222527673266,-0.004699597804062183,0.999732623773228,0.0011111111111111111,0.0,0.0,-0.06,0.01,-0.3
2025-01-03 09:41:33.764032,-0.013061219871029964,-0.018493222527673266,-0.004699597804062183,0.999732623773228,0.0,-0.0022222222222222222,0.0,0.01,-0.04,-0.31
2025-01-03 09:41:33.776052,-0.013061219871029964,-0.018493222527673266,-0.004699597804062183,0.999732623773228,0.0,-0.14333333333333334,0.0,-0.02,0.02,-0.34
2025-01-03 09:41:33.789365,-0.013061219871029964,-0.018493222527673266,-0.004699597804062183,0.999732623773228,-0.0011111111111111111,-0.0011111111111111111,0.0,-0.02,0.07,-0.28
2025-01-03 09:41:33.802512,-0.013061219871029964,-0.018493222527673266,-0.004699597804062183,0.999732623773228,0.0,0.0,0.0,-0.02,-0.05,-0.3
2025-01-03 09:41:33.814858,-0.013061219871029964,-0.018493222527673266,-0.004699597804062183,0.999732623773228,-0.0011111111111111111,0.0,0.0,-0.02,-0.01,-0.38
2025-01-03 09:41:33.827406,-0.013061219871029964,-0.018493222527673266,-0.004699597804062183,0.999732623773228,0.0,0.0022222222222222222,0.0,0.07,-0.09,-0.25
2025-01-03 09:41:33.841714,-0.013061219871029964,-0.018493222527673266,-0.004699597804062183,0.999732623773228,0.0,0.0,0.0,-0.03,-0.09,-0.42
2025-01-03 09:41:33.854074,-0.013061219871029964,-0.018493222527673266,-0.004699597804062183,0.999732623773228,0.0022222222222222222,0.0011111111111111111,-0.0011111111111111111,-0.05,-0.05,-0.32
2025-01-03 09:41:33.864637,-0.013061219871029964,-0.018493222527673266,-0.004699597804062183,0.999732623773228,0.0022222222222222222,0.0,0.0022222222222222222,-0.07,-0.07,-0.32
2025-01-03 09:41:33.877584,-0.013061219871029964,-0.018493222527673266,-0.004699597804062183,0.999732623773228,0.0,0.0,0.0011111111111111111,-0.04,0.04,-0.36
2025-01-03 09:41:33.891586,-0.013061219871029964,-0.018493222527673266,-0.004699597804062183,0.999732623773228,0.0,-0.0011111111111111111,0.0,-0.06,0.03,-0.28
2025-01-03 09:41:33.904055,-0.013061219871029964,-0.018493222527673266,-0.004699597804062183,0.999732623773228,0.0,-0.0022222222222222222,0.0,0.0,0.04,-0.35
2025-01-03 09:41:33.915466,-0.013061219871029964,-0.018493222527673266,-0.004699597804062183,0.999732623773228,-0.0011111111111111111,-0.0011111111111111111,0.0011111111111111111,0.0,0.0,-0.29
2025-01-03 09:41:33.928947,-0.013061219871029964,-0.018493222527673266,-0.004699597804062183,0.999732623773228,0.0011111111111111111,0.0,0.0022222222222222222,0.04,-0.04,-0.37
2025-01-03 09:41:33.942371,-0.013061219871029964,-0.018493222527673266,-0.004699597804062183,0.999732623773228,0.0,0.0,0.0,0.0,-0.01,-0.34
2025-01-03 09:41:33.955518,-0.013061219871029964,-0.018493222527673266,-0.004699597804062183,0.999732623773228,0.0,0.0033333333333333335,0.0,0.04,-0.11,-0.33
2025-01-03 09:41:33.965531,-0.013061219871029964,-0.018493222527673266,-0.004699597804062183,0.999732623773228,0.0,0.0011111111111111111,-0.0011111111111111111,0.0,-0.03,-0.34
2025-01-03 09:41:33.977484,-0.013061219871029964,-0.018493222527673266,-0.004699597804062183,0.999732623773228,0.0,0.0022222222222222222,0.0,-0.05,-0.09,-0.35
2025-01-03 09:41:33.991504,-0.013061219871029964,-0.018493222527673266,-0.004699597804062183,0.999732623773228,0.0011111111111111111,0.0,0.0,-0.02,-0.09,-0.33
2025-01-03 09:41:34.004315,-0.013061219871029964,-0.018493222527673266,-0.004699597804062183,0.999732623773228,0.0,-0.0033333333333333335,0.0,-0.09,-0.03,-0.3
2025-01-03 09:41:34.015330,-0.013061219871029964,-0.018493222527673266,-0.004699597804062183,0.999732623773228,0.0,0.0,0.0022222222222222222,-0.04,0.0,-0.28
2025-01-03 09:41:34.029958,-0.013061219871029964,-0.018493222527673266,-0.004699597804062183,0.999732623773228,0.0022222222222222222,-0.0033333333333333335,0.0,-0.09,0.06,-0.34
2025-01-03 09:41:34.043694,-0.013061219871029964,-0.018493222527673266,-0.004699597804062183,0.999732623773228,0.0022222222222222222,0.0,0.0,0.0,0.07,-0.29
2025-01-03 09:41:34.056265,-0.013061219871029964,-0.018493222527673266,-0.004699597804062183,0.999732623773228,0.0,-0.0022222222222222222,0.0,0.0,-0.04,-0.39
2025-01-03 09:41:34.066372,-0.013061219871029964,-0.018493222527673266,-0.004699597804062183,0.999732623773228,-0.0011111111111111111,0.0,-0.0022222222222222222,0.04,0.03,-0.32
2025-01-03 09:41:34.079399,-0.013061219871029964,-0.018493222527673266,-0.004699597804062183,0.999732623773228,0.0,0.0,0.0011111111111111111,0.02,-0.01,-0.37
2025-01-03 09:41:34.093435,-0.013061219871029964,-0.018493222527673266,-0.004699597804062183,0.999732623773228,0.0,0.0044444444444444444,0.0,-0.02,-0.06,-0.44
2025-01-03 09:41:34.106433,-0.013061219871029964,-0.018493222527673266,-0.004699597804062183,0.999732623773228,0.0,0.0022222222222222222,0.0,-0.04,-0.01,-0.27
2025-01-03 09:41:34.116441,-0.013061219871029964,-0.018493222527673266,-0.004699597804062183,0.999732623773228,0.0011111111111111111,0.0011111111111111111,0.0011111111111111111,-0.03,-0.1,-0.35
2025-01-03 09:41:34.128895,-0.013061219871029964,-0.018493222527673266,-0.004699597804062183,0.999732623773228,0.0022222222222222222,-0.0011111111111111111,0.0,-0.06,-0.02,-0.29
2025-01-03 09:41:34.142951,-0.013061219871029964,-0.018493222527673266,-0.004699597804062183,0.999732623773228,0.0022222222222222222,-0.0011111111111111111,0.0,-0.1,0.0,-0.32
2025-01-03 09:41:34.156482,-0.013061219871029964,-0.018493222527673266,-0.004699597804062183,0.999732623773228,0.0022222222222222222,-0.0011111111111111111,-0.0022222222222222222,-0.06,0.05,-0.34
2025-01-03 09:41:34.168929,-0.013061219871029964,-0.018493222527673266,-0.004699597804062183,0.999732623773228,0.0022222222222222222,-0.0033333333333333335,0.0,-0.02,-0.04,-0.34
2025-01-03 09:41:34.182591,-0.013061219871029964,-0.018493222527673266,-0.004699597804062183,0.999732623773228,0.0,0.0,0.0,0.02,0.01,-0.3
2025-01-03 09:41:34.194636,-0.013061219871029964,-0.018493222527673266,-0.004699597804062183,0.999732623773228,0.0,-0.0033333333333333335,0.0,0.05,0.0,-0.34
2025-01-03 09:41:34.207106,-0.013061219871029964,-0.018493222527673266,-0.004699597804062183,0.999732623773228,-0.0011111111111111111,0.0,0.0022222222222222222,0.07,-0.07,-0.36
2025-01-03 09:41:34.217101,-0.013061219871029964,-0.018493222527673266,-0.004699597804062183,0.999732623773228,-0.0022222222222222222,0.0,-0.0011111111111111111,0.0,0.0,-0.34
2025-01-03 09:41:34.229101,-0.013061219871029964,-0.018493222527673266,-0.004699597804062183,0.999732623773228,0.0,0.0022222222222222222,0.0011111111111111111,0.01,-0.04,-0.34
2025-01-03 09:41:34.242534,-0.013061219871029964,-0.018493222527673266,-0.004699597804062183,0.999732623773228,0.0,0.0011111111111111111,0.0,-0.03,-0.07,-0.31
2025-01-03 09:41:34.255510,-0.013061219871029964,-0.018493222527673266,-0.004699597804062183,0.999732623773228,0.0,0.0011111111111111111,0.0,-0.05,-0.09,-0.31
2025-01-03 09:41:34.266067,-0.013061219871029964,-0.018493222527673266,-0.004699597804062183,0.999732623773228,0.0011111111111111111,0.0,0.0,-0.08,0.04,-0.28
2025-01-03 09:41:34.278782,-0.014345288026477453,-6.104377883607427e-05,-6.104377883607427e-05,0.9998970973348965,0.0011111111111111111,0.0,0.0,-0.05,-0.01,-0.33
2025-01-03 09:41:34.293395,-0.013061219871029964,-0.018493222527673266,-0.004699597804062183,0.999732623773228,0.0022222222222222222,0.0,0.0,-0.02,0.0,-0.35
2025-01-03 09:41:34.305089,-0.013061219871029964,-0.018493222527673266,-0.004699597804062183,0.999732623773228,0.0,-0.0011111111111111111,0.0,0.03,0.01,-0.34
2025-01-03 09:41:34.316787,-0.013061219871029964,-0.018493222527673266,-0.004699597804062183,0.999732623773228,0.0,-0.0022222222222222222,0.0011111111111111111,0.0,0.04,-0.32
2025-01-03 09:41:34.329302,-0.013061219871029964,-0.018493222527673266,-0.004699597804062183,0.999732623773228,0.0,0.0011111111111111111,0.0,0.03,-0.05,-0.32
2025-01-03 09:41:34.343619,-0.013061219871029964,-0.018493222527673266,-0.004699597804062183,0.999732623773228,-0.0022222222222222222,0.0,0.0,-0.02,0.01,-0.41
2025-01-03 09:41:34.356642,-0.013061219871029964,-0.018493222527673266,-0.004699597804062183,0.999732623773228,-0.0011111111111111111,0.0,0.0011111111111111111,0.0,-0.1,-0.26
2025-01-03 09:41:34.367143,-0.013061219871029964,-0.018493222527673266,-0.004699597804062183,0.999732623773228,0.0,0.0022222222222222222,0.0,0.0,-0.07,-0.41
2025-01-03 09:41:34.379156,-0.013061219871029964,-0.018493222527673266,-0.004699597804062183,0.999732623773228,0.0,0.0022222222222222222,0.0,-0.11,-0.04,-0.35
2025-01-03 09:41:34.394306,-0.013061219871029964,-0.018493222527673266,-0.004699597804062183,0.999732623773228,0.0,0.0,-0.0011111111111111111,-0.08,-0.09,-0.33
2025-01-03 09:41:34.405477,-0.013061219871029964,-0.018493222527673266,-0.004699597804062183,0.999732623773228,0.0022222222222222222,0.0,0.0011111111111111111,-0.09,0.03,-0.35
2025-01-03 09:41:34.417828,-0.013061219871029964,-0.018493222527673266,-0.004699597804062183,0.999732623773228,0.0,0.0,0.0,-0.04,-0.02,-0.32
2025-01-03 09:41:34.430966,-0.013061219871029964,-0.018493222527673266,-0.004699597804062183,0.999732623773228,0.0011111111111111111,0.0,0.0,0.0,0.05,-0.36
2025-01-03 09:41:34.445451,-0.013061219871029964,-0.018493222527673266,-0.004699597804062183,0.999732623773228,0.0,0.0,0.0011111111111111111,0.01,0.03,-0.28
2025-01-03 09:41:34.457905,-0.013061219871029964,-0.018493222527673266,-0.004699597804062183,0.999732623773228,0.0,0.0,0.0,0.0,0.03,-0.34
2025-01-03 09:41:34.469274,-0.013061219871029964,-0.018493222527673266,-0.004699597804062183,0.999732623773228,0.0,0.0,0.0,0.01,0.0,-0.32
2025-01-03 09:41:34.482230,-0.013061219871029964,-0.018493222527673266,-0.004699597804062183,0.999732623773228,0.0,0.0011111111111111111,0.0,0.0,0.01,-0.33
2025-01-03 09:41:34.495685,-0.013061219871029964,-0.018493222527673266,-0.004699597804062183,0.999732623773228,-0.0022222222222222222,0.0022222222222222222,0.0,0.0,-0.09,-0.42
2025-01-03 09:41:34.508443,-0.013061219871029964,-0.018493222527673266,-0.004699597804062183,0.999732623773228,0.0011111111111111111,0.0,0.0,-0.02,-0.1,-0.32
2025-01-03 09:41:34.519158,-0.013061219871029964,-0.018493222527673266,-0.004699597804062183,0.999732623773228,0.0,0.0011111111111111111,0.0,-0.09,-0.04,-0.33
2025-01-03 09:41:34.532913,-0.013061219871029964,-0.018493222527673266,-0.004699597804062183,0.999732623773228,0.0011111111111111111,0.0,0.0,-0.04,-0.03,-0.38
2025-01-03 09:41:34.545828,-0.013061219871029964,-0.018493222527673266,-0.004699597804062183,0.999732623773228,0.0022222222222222222,-0.0022222222222222222,0.0,-0.11,0.01,-0.36
2025-01-03 09:41:34.558568,-0.013061219871029964,-0.018493222527673266,-0.004699597804062183,0.999732623773228,0.0,0.0,-0.0022222222222222222,0.0,0.0,-0.31
2025-01-03 09:41:34.568304,-0.013061219871029964,-0.018493222527673266,-0.004699597804062183,0.999732623773228,0.0,0.0,0.0,-0.04,-0.02,-0.34
2025-01-03 09:41:34.581261,-0.013061219871029964,-0.018493222527673266,-0.004699597804062183,0.999732623773228,0.0011111111111111111,0.0,0.0,0.0,-0.05,-0.36
2025-01-03 09:41:34.595215,-0.013061219871029964,-0.018493222527673266,-0.004699597804062183,0.999732623773228,-0.0044444444444444444,-0.0022222222222222222,0.0022222222222222222,0.04,-0.06,-0.3
2025-01-03 09:41:34.606984,-0.013061219871029964,-0.018493222527673266,-0.004699597804062183,0.999732623773228,0.0,0.0,0.0022222222222222222,0.0,-0.08,-0.35
2025-01-03 09:41:34.618768,-0.013061219871029964,-0.018493222527673266,-0.004699597804062183,0.999732623773228,-0.0022222222222222222,0.0022222222222222222,0.0011111111111111111,0.01,0.03,-0.39
2025-01-03 09:41:34.631524,-0.013061219871029964,-0.018493222527673266,-0.004699597804062183,0.999732623773228,0.0,0.0,0.0,-0.04,-0.04,-0.43
2025-01-03 09:41:34.644765,-0.013061219871029964,-0.018493222527673266,-0.004699597804062183,0.999732623773228,0.0,0.0022222222222222222,0.0,-0.01,-0.1,-0.26
2025-01-03 09:41:34.657084,-0.013061219871029964,-0.018493222527673266,-0.004699597804062183,0.999732623773228,-0.0011111111111111111,0.0033333333333333335,-0.0011111111111111111,-0.06,-0.04,-0.32
2025-01-03 09:41:34.668879,-0.013061219871029964,-0.018493222527673266,-0.004699597804062183,0.999732623773228,0.0,0.0011111111111111111,0.0,-0.06,-0.01,-0.33
2025-01-03 09:41:34.681149,-0.013061219871029964,-0.018493222527673266,-0.004699597804062183,0.999732623773228,0.0022222222222222222,0.0011111111111111111,0.0,-0.1,0.07,-0.32
2025-01-03 09:41:34.695011,-0.013061219871029964,-0.018493222527673266,-0.004699597804062183,0.999732623773228,0.0,-0.0044444444444444444,0.0,-0.07,-0.01,-0.32
2025-01-03 09:41:34.707478,-0.013061219871029964,-0.018493222527673266,-0.004699597804062183,0.999732623773228,0.0,-0.0022222222222222222,0.0,-0.04,0.0,-0.38
2025-01-03 09:41:34.718979,-0.013061219871029964,-0.018493222527673266,-0.004699597804062183,0.999732623773228,0.0,0.0,0.0011111111111111111,0.02,0.01,-0.3
2025-01-03 09:41:34.731227,-0.013061219871029964,-0.018493222527673266,-0.004699597804062183,0.999732623773228,0.0,-0.0011111111111111111,0.0011111111111111111,0.05,0.0,-0.33
2025-01-03 09:41:34.744800,-0.013061219871029964,-0.018493222527673266,-0.004699597804062183,0.999732623773228,0.0,0.0,0.0011111111111111111,0.04,-0.05,-0.35
2025-01-03 09:41:34.757548,-0.013061219871029964,-0.018493222527673266,-0.004699597804062183,0.999732623773228,0.0,0.0,0.0,0.0,-0.03,-0.32
2025-01-03 09:41:34.768985,-0.013061219871029964,-0.018493222527673266,-0.004699597804062183,0.999732623773228,0.0,0.0022222222222222222,-0.0011111111111111111,-0.01,-0.1,-0.32
2025-01-03 09:41:34.781657,-0.013061219871029964,-0.018493222527673266,-0.004699597804062183,0.999732623773228,0.0,0.0,-0.0011111111111111111,-0.03,-0.02,-0.33
2025-01-03 09:41:34.795056,-0.013061219871029964,-0.018493222527673266,-0.004699597804062183,0.999732623773228,0.0,0.0,0.0,-0.1,-0.07,-0.31
2025-01-03 09:41:34.808374,-0.013061219871029964,-0.018493222527673266,-0.004699597804062183,0.999732623773228,0.0,0.0011111111111111111,0.0,-0.05,0.05,-0.34
2025-01-03 09:41:34.819467,-0.013061219871029964,-0.018493222527673266,-0.004699597804062183,0.999732623773228,0.0011111111111111111,0.0,0.0,-0.08,0.0,-0.29
2025-01-03 09:41:34.833179,-0.013061219871029964,-0.018493222527673266,-0.004699597804062183,0.999732623773228,0.0011111111111111111,-0.0033333333333333335,0.0,-0.03,0.0,-0.38
2025-01-03 09:41:34.845232,-0.013061219871029964,-0.018493222527673266,-0.004699597804062183,0.999732623773228,0.0022222222222222222,-0.0033333333333333335,0.0,-0.01,0.01,-0.34
2025-01-03 09:41:34.858053,-0.013061219871029964,-0.018493222527673266,-0.004699597804062183,0.999732623773228,0.0,-0.0033333333333333335,0.0,0.04,-0.07,-0.35
2025-01-03 09:41:34.869598,-0.013061219871029964,-0.018493222527673266,-0.004699597804062183,0.999732623773228,0.0,-0.0011111111111111111,0.0,0.01,0.07,-0.32
2025-01-03 09:41:34.882510,-0.013061219871029964,-0.018493222527673266,-0.004699597804062183,0.999732623773228,-0.0033333333333333335,0.0011111111111111111,0.0,0.07,0.0,-0.43
2025-01-03 09:41:34.895677,-0.013061219871029964,-0.018493222527673266,-0.004699597804062183,0.999732623773228,0.0,0.0044444444444444444,0.0,0.02,-0.07,-0.26
2025-01-03 09:41:34.908268,-0.013061219871029964,-0.018493222527673266,-0.004699597804062183,0.999732623773228,0.0,0.0,0.0,0.0,-0.06,-0.3
2025-01-03 09:41:34.919931,-0.013061219871029964,-0.018493222527673266,-0.004699597804062183,0.999732623773228,0.0,0.0011111111111111111,0.0,-0.09,-0.02,-0.32
2025-01-03 09:41:34.932831,-0.013061219871029964,-0.018493222527673266,-0.004699597804062183,0.999732623773228,0.0,0.0,0.0,-0.11,-0.02,-0.28
2025-01-03 09:41:34.947753,-0.013061219871029964,-0.018493222527673266,-0.004699597804062183,0.999732623773228,0.0,0.0,0.0,-0.1,0.0,-0.34
2025-01-03 09:41:34.959131,-0.013061219871029964,-0.018493222527673266,-0.004699597804062183,0.999732623773228,0.0,-0.0033333333333333335,0.0,-0.03,0.01,-0.37
2025-01-03 09:41:34.970156,-0.013061219871029964,-0.018493222527673266,-0.004699597804062183,0.999732623773228,0.0022222222222222222,-0.0022222222222222222,0.0022222222222222222,0.02,0.0,-0.3
2025-01-03 09:41:34.983408,-0.013061219871029964,-0.018493222527673266,-0.004699597804062183,0.999732623773228,0.0033333333333333335,-0.0022222222222222222,0.0,-0.04,0.02,-0.35
2025-01-03 09:41:34.997082,-0.013061219871029964,-0.018493222527673266,-0.004699597804062183,0.999732623773228,0.0,0.0,0.0,0.04,0.08,-0.35
2025-01-03 09:41:35.009182,-0.013061219871029964,-0.018493222527673266,-0.004699597804062183,0.999732623773228,0.0,-0.0011111111111111111,0.0,0.0,-0.01,-0.32
2025-01-03 09:41:35.021173,-0.013061219871029964,-0.018493222527673266,-0.004699597804062183,0.999732623773228,-0.0011111111111111111,0.0011111111111111111,0.0011111111111111111,0.05,-0.06,-0.31
2025-01-03 09:41:35.034148,-0.013061219871029964,-0.018493222527673266,-0.004699597804062183,0.999732623773228,0.0,0.0,0.0011111111111111111,-0.03,-0.04,-0.34
2025-01-03 09:41:35.047637,-0.013061219871029964,-0.018493222527673266,-0.004699597804062183,0.999732623773228,-0.0022222222222222222,0.0044444444444444444,0.0,-0.02,-0.08,-0.4
2025-01-03 09:41:35.060655,-0.013061219871029964,-0.018493222527673266,-0.004699597804062183,0.999732623773228,0.0011111111111111111,0.0,0.0,-0.12,-0.05,-0.34
2025-01-03 09:41:35.071693,-0.013061219871029964,-0.018493222527673266,-0.004699597804062183,0.999732623773228,0.0011111111111111111,0.0011111111111111111,0.0,-0.03,-0.03,-0.3
2025-01-03 09:41:35.085933,-0.013061219871029964,-0.018493222527673266,-0.004699597804062183,0.999732623773228,0.0033333333333333335,0.0,0.0,-0.01,0.01,-0.37
2025-01-03 09:41:35.099155,-0.013061219871029964,-0.018493222527673266,-0.004699597804062183,0.999732623773228,0.0,0.0,0.0,0.02,-0.05,-0.34
2025-01-03 09:41:35.111999,-0.013061219871029964,-0.018493222527673266,-0.004699597804062183,0.999732623773228,0.0,-0.0011111111111111111,-0.0022222222222222222,-0.01,0.01,-0.35
2025-01-03 09:41:35.122275,-0.013061219871029964,-0.018493222527673266,-0.004699597804062183,0.999732623773228,0.0,0.0,0.0,-0.07,0.06,-0.32
2025-01-03 09:41:35.135716,-0.013061219871029964,-0.018493222527673266,-0.004699597804062183,0.999732623773228,0.0,0.0,0.0011111111111111111,0.06,0.05,-0.35
2025-01-03 09:41:35.149015,-0.013061219871029964,-0.018493222527673266,-0.004699597804062183,0.999732623773228,-0.0033333333333333335,0.0,0.0,0.0,-0.01,-0.41
2025-01-03 09:41:35.161513,-0.013061219871029964,-0.018493222527673266,-0.004699597804062183,0.999732623773228,0.0,0.005555555555555556,0.0,0.05,-0.09,-0.29
2025-01-03 09:41:35.171579,-0.013061219871029964,-0.018493222527673266,-0.004699597804062183,0.999732623773228,-0.0011111111111111111,0.0011111111111111111,-0.0011111111111111111,-0.03,-0.05,-0.29
2025-01-03 09:41:35.184465,-0.013061219871029964,-0.018493222527673266,-0.004699597804062183,0.999732623773228,0.0,0.005555555555555556,0.0,-0.03,-0.12,-0.36
2025-01-03 09:41:35.198083,-0.013061219871029964,-0.018493222527673266,-0.004699597804062183,0.999732623773228,0.0011111111111111111,0.0011111111111111111,-0.0022222222222222222,-0.07,-0.06,-0.36
2025-01-03 09:41:35.210380,-0.013061219871029964,-0.018493222527673266,-0.004699597804062183,0.999732623773228,0.0022222222222222222,-0.0011111111111111111,0.0,-0.05,0.01,-0.34
2025-01-03 09:41:35.220992,-0.013061219871029964,-0.018493222527673266,-0.004699597804062183,0.999732623773228,0.0011111111111111111,-0.0022222222222222222,0.0,-0.06,0.03,-0.32
2025-01-03 09:41:35.234170,-0.013061219871029964,-0.018493222527673266,-0.004699597804062183,0.999732623773228,0.0011111111111111111,-0.0022222222222222222,0.0,-0.06,0.01,-0.32
2025-01-03 09:41:35.248161,-0.013061219871029964,-0.018493222527673266,-0.004699597804062183,0.999732623773228,0.0011111111111111111,-0.0022222222222222222,0.0,-0.65,0.23,-0.17
2025-01-03 09:41:35.260106,-0.012512505822330558,-0.01959275301935663,-0.004699819260094892,0.9997186968973278,0.06666666666666667,-0.07555555555555556,0.0022222222222222222,3.37,1.93,-0.53
2025-01-03 09:41:35.271548,-0.013183884187630954,-0.019287534274497135,-0.004516701064280975,0.999716847727812,-0.13111111111111112,0.06,0.03888888888888889,5.74,1.26,-1.75
2025-01-03 09:41:35.283021,-0.012878523612861747,-0.020202802444821033,-0.004455602956108566,0.9997030249055097,0.058888888888888886,-0.18666666666666668,0.015555555555555555,4.89,-0.05,-1.3
2025-01-03 09:41:35.296433,-0.013549863316864861,-0.0200196178735661,-0.004150408583544192,0.9996991498510341,-0.13666666666666666,0.023333333333333334,0.06555555555555556,3.3,-0.25,-0.01
2025-01-03 09:41:35.309623,-0.01373308729798141,-0.019714609765546648,-0.002685581516049698,0.9997077193495001,-0.08,0.01888888888888889,0.17555555555555555,2.52,0.06,-0.75
2025-01-03 09:41:35.321741,-0.014099277852209933,-0.019592502989434584,-0.002319361724605963,0.9997059391400281,-0.07111111111111111,0.02,0.07333333333333333,2.92,0.77,-1.41
2025-01-03 09:41:35.334066,-0.014099346975711642,-0.019409490641888755,-0.0016479756205377244,0.9997108403254588,0.0,0.03888888888888889,0.15,2.73,0.31,-1.09
2025-01-03 09:41:35.345249,-0.01397742967361787,-0.018982448159367497,-0.0006103681080182476,0.9997219241230877,0.02,0.08222222222222222,0.20555555555555555,3.11,0.04,-1.62
2025-01-03 09:41:35.359305,-0.014037665052512832,-0.018737231178788866,0.00012206665263054636,0.9997258850441747,0.008888888888888889,0.03888888888888889,0.15333333333333332,1.51,-0.26,-0.11
2025-01-03 09:41:35.371403,-0.013671497458922391,-0.01885934247681705,0.0009155020619814101,0.9997282516836998,0.017777777777777778,0.022222222222222223,0.07777777777777778,2.73,0.48,-0.14
2025-01-03 09:41:35.381827,-0.01403768209948869,-0.018615187131930656,0.0014648016103814285,0.999727099085325,-0.07555555555555556,0.04666666666666667,0.11444444444444445,2.14,1.26,-1.75
2025-01-03 09:41:35.394632,-0.01452593036439357,-0.018248962936780157,0.0020751329091990814,0.9997257956670869,-0.09888888888888889,0.07777777777777778,0.13444444444444445,1.59,0.14,2.16
2025-01-03 09:41:35.408430,-0.014281837593418405,-0.018249014702701294,0.002380306265569734,0.9997286315392884,0.058888888888888886,0.0022222222222222222,0.058888888888888886,0.55,-1.08,-1.32
2025-01-03 09:41:35.420810,-0.014525946516271336,-0.018187949839701085,0.002075135216610191,0.9997269072963214,-0.1,0.027777777777777776,-0.01888888888888889,0.19,-1.61,2.42
2025-01-03 09:41:35.431063,-0.014343662962584484,-0.01855520655585397,0.002075253364799457,0.9997227900603033,0.03777777777777778,-0.01,-0.04777777777777778,0.5,-0.01,-0.01
2025-01-03 09:41:35.443933,-0.01409947837094588,-0.018860341197499034,0.002258358007467522,0.9997201568732579,0.05555555555555555,-0.07111111111111111,0.04,0.97,0.62,-0.2
2025-01-03 09:41:35.457863,-0.01422151217280515,-0.01886028867552271,0.0026856074489417453,0.9997173728685647,-0.021111111111111112,0.0,0.08333333333333333,1.54,1.59,-0.46
2025-01-03 09:41:35.470971,-0.014465725992358897,-0.01831104555994797,0.0033570250193237948,0.9997220507546261,-0.07111111111111111,0.0,0.09777777777777778,0.59,-0.66,0.16
2025-01-03 09:41:35.480639,-0.01409869803745725,-0.018432064100918136,0.003112699566711341,0.9997258608378777,0.016666666666666666,0.11444444444444445,0.04888888888888889,-0.67,-1.32,-1.17
2025-01-03 09:41:35.494100,-0.014282616281696497,-0.018494156980145466,0.0031128779075492367,0.9997221028970382,-0.035555555555555556,-0.011111111111111112,-0.008888888888888889,0.14,0.09,1.71
2025-01-03 09:41:35.507685,-0.015015075063722108,-0.017761735136354203,0.0035401396491702534,0.999723229547579,-0.14666666666666667,0.15222222222222223,0.08666666666666667,0.04,-0.01,-0.7
2025-01-03 09:41:35.520933,-0.014709853318774073,-0.018066873785714217,0.003967387824565622,0.9997206950547741,0.07555555555555556,-0.06,0.058888888888888886,0.71,0.14,-3.58
2025-01-03 09:41:35.531464,-0.014464938614216919,-0.017821780908655445,0.003967177257063712,0.9997286687800554,-0.015555555555555555,0.0044444444444444444,0.028888888888888888,-0.73,-1.42,0.47
2025-01-03 09:41:35.542572,-0.01367221735030222,-0.01892137222586468,0.003906347814372063,0.9997198570562503,0.15888888888888889,-0.23333333333333334,-0.012222222222222223,-0.9,0.37,0.97
2025-01-03 09:41:35.555139,-0.014099457386331577,-0.018616166678922647,0.004150489620218819,0.9997186689641772,-0.08777777777777777,0.06666666666666667,0.04111111111111111,0.64,0.79,5.17
2025-01-03 09:41:35.570739,-0.014892854918329621,-0.018249850904018674,0.004272540345422432,0.9997134045382003,-0.1622222222222222,0.07444444444444444,0.03666666666666667,0.77,0.49,-5.2
2025-01-03 09:41:35.580944,-0.014648729838538101,-0.018371948672499867,0.004272546202906946,0.9997147751058981,0.05444444444444444,-0.05333333333333334,-0.0011111111111111111,-0.61,-0.22,-2.62
2025-01-03 09:41:35.594743,-0.014831757709546523,-0.018493920106965416,0.004394594876902674,0.9997092984554012,-0.034444444444444444,-0.02666666666666667,0.021111111111111112,-0.4,-0.76,1.8
2025-01-03 09:41:35.608463,-0.014831774727870364,-0.018371869107362056,0.00463874435933394,0.9997104455464555,0.006666666666666667,0.015555555555555555,0.05,0.13,0.0,1.53
2025-01-03 09:41:35.622053,-0.015075895354385145,-0.018127696033410478,0.00512702514076256,0.9997088664351186,-0.03222222222222222,0.07666666666666666,0.06111111111111111,0.05,-0.4,-3.82
2025-01-03 09:41:35.632376,-0.014709777885350932,-0.018005744714433714,0.005310168780188925,0.9997155683990162,-0.02,-0.023333333333333334,0.043333333333333335,-0.46,-0.28,-2.18
2025-01-03 09:41:35.643990,-0.0144046357510417,-0.018005794688802125,0.005615366479219646,0.9997183430775933,0.07,-0.0022222222222222222,0.058888888888888886,-0.87,-0.05,2.93
2025-01-03 09:41:35.657009,-0.01446554871800187,-0.018310821162027684,0.005981534912929043,0.9997097993761713,-0.013333333333333334,-0.06222222222222222,0.07666666666666666,-0.68,0.33,3.87
2025-01-03 09:41:35.670911,-0.014831602116159066,-0.018493726095457602,0.00634768156411746,0.999698810948845,-0.07222222222222222,-0.03111111111111111,0.07,0.71,0.15,-4.56
2025-01-03 09:41:35.682086,-0.01525887168508038,-0.018188575048615815,0.005981477700551509,0.9997002373197262,-0.025555555555555557,-0.025555555555555557,0.006666666666666667,-0.29,-0.5,-2.58
2025-01-03 09:41:35.694394,-0.015258863357391059,-0.018371671482298835,0.005493190808660781,0.9996996917228326,-0.008888888888888889,-0.04555555555555556,-0.09222222222222222,-0.69,-0.44,1.28
2025-01-03 09:41:35.711153,-0.01525885633713113,-0.018432698455254404,0.005371117430670157,0.9996992317834831,-0.0077777777777777776,-0.011111111111111112,-0.024444444444444446,-0.73,-0.54,5.55
2025-01-03 09:41:35.722196,-0.015380878569921612,-0.018554710655778454,0.005187994755727528,0.9996960718124845,-0.058888888888888886,-0.006666666666666667,0.0044444444444444444,-0.47,-0.08,-4.0
2025-01-03 09:41:35.732638,-0.015136826199757668,-0.018554819212606176,0.004760775982181847,0.9997019206686728,0.024444444444444446,-0.013333333333333334,-0.04666666666666667,0.49,0.25,-1.45
2025-01-03 09:41:35.746335,-0.014770821929475524,-0.018127826913447234,0.004577734069052332,0.9997160842267753,0.07333333333333333,0.08666666666666667,-0.03777777777777778,-0.12,-0.18,3.66
2025-01-03 09:41:35.760491,-0.014526695297465716,-0.018188887389263796,0.0048218862542008046,0.9997174045260124,0.051111111111111114,-0.01,0.051111111111111114,-0.58,-0.2,1.72
2025-01-03 09:41:35.775392,-0.014953728093772814,-0.018432758711507714,0.005615277488273873,0.999702499787367,-0.02666666666666667,-0.07666666666666666,0.09555555555555556,-1.03,0.21,-1.02
2025-01-03 09:41:35.783935,-0.014892655519054948,-0.018615819398818685,0.00561526355636498,0.9997000194532827,0.016666666666666666,-0.044444444444444446,0.0022222222222222222,-0.45,0.12,-1.42
2025-01-03 09:41:35.796403,-0.015075747898847455,-0.01855476664473533,0.00549318749350717,0.9996990884017105,-0.044444444444444446,0.012222222222222223,-0.025555555555555557,-0.21,-0.06,-0.51
2025-01-03 09:41:35.810280,-0.015197886078131674,-0.018249670431170165,0.00537114046134774,0.9997035183683481,-0.015555555555555555,0.07111111111111111,-0.03222222222222222,0.28,-0.45,3.34
2025-01-03 09:41:35.822552,-0.01501488241457383,-0.018127723890765966,0.0050049608048579435,0.999710402716686,0.08,-0.022222222222222223,-0.042222222222222223,-0.29,0.21,-3.13
2025-01-03 09:41:35.835491,-0.015014865773481113,-0.01818873983942021,0.005004955257827038,0.999709294731086,0.0044444444444444444,-0.017777777777777778,0.0,-0.87,-0.32,-0.7
2025-01-03 09:41:35.849461,-0.014465665633736925,-0.018127859465062728,0.005127071363856125,0.999717879388089,0.11222222222222222,0.01,0.03,-0.71,0.17,0.4
2025-01-03 09:41:35.862414,-0.014404708412613272,-0.017761737915552807,0.005493321004810146,0.9997233859753932,0.07777777777777778,0.14888888888888888,0.05,-0.67,0.99,-3.0
2025-01-03 09:41:35.874324,-0.014099543846696387,-0.017944873986704492,0.005432291785090816,0.9997247994157582,0.052222222222222225,-0.03666666666666667,-0.016666666666666666,-0.23,0.19,1.59
2025-01-03 09:41:35.884108,-0.01385467600883625,-0.017699806354900937,0.005187874276436481,0.9997338899768183,0.05444444444444444,0.058888888888888886,-0.043333333333333335,-0.38,0.71,-0.17
2025-01-03 09:41:35.896794,-0.014465639334859386,-0.018310935866910613,0.004821879778286462,0.9997160618804298,-0.13111111111111112,-0.12555555555555556,-0.07555555555555556,-0.47,-0.19,-0.18
2025-01-03 09:41:35.910549,-0.014831707235089664,-0.018676964666409206,0.004394579921508049,0.999705896310838,-0.07,-0.07111111111111111,-0.08555555555555555,0.14,-0.8,1.15
2025-01-03 09:41:35.922668,-0.015075887912705112,-0.018493902986030968,0.0037231949905870924,0.9997083729643604,-0.005555555555555556,0.07222222222222222,-0.06333333333333334,0.04,-0.91,-2.35
2025-01-03 09:41:35.933215,-0.014953862741425268,-0.018493960859803496,0.003356989595013836,0.9997115013951203,-0.06222222222222222,-0.03666666666666667,-0.07777777777777778,-0.04,-0.07,-0.09
2025-01-03 09:41:35.944494,-0.014770830651411751,-0.018371983578822054,0.0032959704759348532,0.9997166745432772,0.03888888888888889,0.024444444444444446,-0.01888888888888889,-0.66,0.18,1.11
2025-01-03 09:41:35.957490,-0.014892728864211977,-0.018860054176399594,0.0035400748939520272,0.9997049428972458,-0.025555555555555557,-0.09777777777777778,0.04888888888888889,-0.56,0.6,0.94
2025-01-03 09:41:35.973273,-0.014526569175706846,-0.018860125526442922,0.003967340321096408,0.9997087249113548,0.08,0.0,0.09333333333333334,0.22,0.85,-2.55
2025-01-03 09:41:35.983550,-0.014587466169210141,-0.019287193763474497,0.00408937336124301,0.9996991982656607,-0.025555555555555557,-0.043333333333333335,-0.023333333333333334,0.61,0.37,-1.45
2025-01-03 09:41:35.995667,-0.014404512862112176,-0.01892118214938464,0.0038452725013265556,0.9997098142734548,0.04,0.07888888888888888,-0.04555555555555556,1.11,-0.08,-0.09
2025-01-03 09:41:36.010249,-0.014282511592574649,-0.018799203292790563,0.0036011460853072833,0.9997147751058981,0.01888888888888889,0.028888888888888888,-0.05444444444444444,0.62,-0.64,1.46
2025-01-03 09:41:36.022748,-0.014221580599101655,-0.018494158461492712,0.0033570254633072576,0.9997221829729014,0.013333333333333334,0.03,-0.035555555555555556,-0.49,0.33,-0.91
2025-01-03 09:41:36.033570,-0.014831715909918592,-0.01886008319409401,0.00335697273681285,0.9997064810228667,-0.0077777777777777776,0.028888888888888888,-0.011111111111111112,-1.12,0.36,-1.31
2025-01-03 09:41:36.044919,-0.014831655075929621,-0.019043112690082475,0.0035400658205922554,0.9997023806117336,0.008888888888888889,-0.03666666666666667,0.035555555555555556,0.09,-1.78,0.85
2025-01-03 09:41:36.058297,-0.014831744255166378,-0.01867701128428359,0.0037842310445280474,0.9997083915858853,0.011111111111111112,0.08222222222222222,0.056666666666666664,0.89,-0.6,-0.85
2025-01-03 09:41:36.072996,-0.014831747653291788,-0.018677015563404474,0.0037231959129662515,0.9997086206307251,0.0022222222222222222,-0.0011111111111111111,-0.011111111111111112,0.73,-0.2,0.22
2025-01-03 09:41:36.083436,-0.014709811587753996,-0.01831096878143651,0.003540120631077725,0.9997178589038286,0.0077777777777777776,0.051111111111111114,-0.06888888888888889,0.14,0.21,-0.39
2025-01-03 09:41:36.096188,-0.014648827279511327,-0.018127923758395267,0.0037232436002091287,0.9997214250463167,0.017777777777777778,0.024444444444444446,0.03333333333333333,-0.13,0.39,0.2
2025-01-03 09:41:36.109574,-0.014648831208843669,-0.018005855027537012,0.004211538972542555,0.999721693206877,0.0,0.03222222222222222,0.09666666666666666,-0.47,0.34,-1.7
2025-01-03 09:41:36.123017,-0.014648775325303216,-0.018127859465062728,0.004577742289157255,0.999717879388089,0.0,-0.03,0.07666666666666666,0.16,-0.08,-0.64
2025-01-03 09:41:36.134701,-0.014343541314122916,-0.018677121881368563,0.00408943518317547,0.9997143114213586,0.015555555555555555,-0.027777777777777776,-0.05333333333333334,0.32,-0.05,1.21
2025-01-03 09:41:36.143988,-0.014160381790975113,-0.019043272063725154,0.003906312218200031,0.9997107472171611,0.04,-0.07777777777777778,-0.044444444444444446,0.79,0.26,-0.25
2025-01-03 09:41:36.156244,-0.01452645707324091,-0.019226193185171794,0.00415041630664026,0.9997010100950121,-0.07111111111111111,-0.034444444444444444,0.05333333333333334,0.6,0.42,-0.34
2025-01-03 09:41:36.168882,-0.014770504015815832,-0.019348139557907516,0.004272459839285571,0.9996945672522625,-0.058888888888888886,-0.03,0.03111111111111111,0.0,0.38,-2.73
2025-01-03 09:41:36.179282,-0.014709753033402105,-0.01837193221184246,0.004272542374847085,0.999713879394577,0.017777777777777778,0.20333333333333334,0.0,0.24,-0.05,0.0
2025-01-03 09:41:36.189882,-0.014587728327013872,-0.018371992579209937,0.003906337292589488,0.9997171643019255,0.01888888888888889,-0.008888888888888889,-0.07222222222222222,0.0,-0.76,-0.82
2025-01-03 09:41:36.203378,-0.014709814738803523,-0.0183109727039048,0.003479084813741912,0.9997180730575224,-0.022222222222222223,0.01,-0.09222222222222222,-0.61,-0.64,0.08
2025-01-03 09:41:36.216251,-0.01452668866794154,-0.01849406162347179,0.003601153913481306,0.9997169482866154,-0.0044444444444444444,-0.06333333333333334,0.06,-0.42,0.05,-0.43
2025-01-03 09:41:36.225873,-0.014465679214360995,-0.018310986347292398,0.004211526859877252,0.9997188179410074,0.014444444444444444,0.028888888888888888,0.11777777777777777,0.09,0.13,-0.43
2025-01-03 09:41:36.236180,-0.01452664702391358,-0.0184329722740416,0.004577724902493775,0.9997140823726073,-0.01,-0.016666666666666666,0.08444444444444445,0.4,0.34,-0.02
2025-01-03 09:41:36.249818,-0.014343506928220137,-0.018677077106533452,0.004638751176786087,0.9997119147970962,0.035555555555555556,-0.052222222222222225,0.0022222222222222222,0.61,0.12,-1.48
2025-01-03 09:41:36.263210,-0.014343522745170345,-0.01867709770222181,0.0043946112240521905,0.9997130172048726,0.005555555555555556,-0.0011111111111111111,-0.04666666666666667,-0.21,0.23,1.6
2025-01-03 09:41:36.275019,-0.014770726126763941,-0.018554961746017513,0.004272524086254032,0.9997096001250685,-0.022222222222222223,0.0,0.011111111111111112,0.08,0.22,1.02
2025-01-03 09:41:36.286528,-0.015014807823754776,-0.018554884465127854,0.004394577899635544,0.9997054363629246,-0.04555555555555556,0.0033333333333333335,0.016666666666666666,-0.03,-0.3,-1.28
2025-01-03 09:41:36.299407,-0.015136970193351394,-0.018127742529940986,0.0043946042496826624,0.9997114306326713,-0.028888888888888888,0.09111111111111111,-0.0044444444444444444,0.38,-0.6,-1.21
2025-01-03 09:41:36.313286,-0.015136985982990963,-0.018127761439307725,0.004150463898562038,0.9997124734492298,0.0022222222222222222,0.0,-0.044444444444444446,-0.36,-0.05,-1.01
2025-01-03 09:41:36.325050,-0.015197890381065199,-0.018493818415513074,0.004394570712597166,0.9997038014115136,-0.025555555555555557,-0.021111111111111112,0.06111111111111111,-0.35,0.16,1.82
2025-01-03 09:41:36.336377,-0.01495373929105995,-0.01861587952560524,0.004821817975484637,0.9997032483602893,-0.025555555555555557,-0.021111111111111112,0.06111111111111111,-0.09,-0.08,0.37
2025-01-03 09:41:36.350293,-0.015197760303867146,-0.018798836038518396,0.005004884919345807,0.9996952450483533,-0.057777777777777775,-0.034444444444444444,0.03222222222222222,0.16,0.25,-1.87
2025-01-03 09:41:36.363859,-0.015075756856697074,-0.018676848575503256,0.004943871681750862,0.9996996824123132,0.02666666666666667,0.017777777777777778,-0.012222222222222223,0.36,-0.06,0.12
2025-01-03 09:41:36.375707,-0.0149536924408868,-0.018798927639971978,0.004760767389343553,0.9997001162827955,0.008888888888888889,-0.06777777777777778,-0.016666666666666666,0.2,-0.51,0.87
2025-01-03 09:41:36.385742,-0.014892721540743666,-0.018615901925929584,0.004760788033516418,0.9997044512944283,0.02,0.034444444444444444,0.005555555555555556,-0.44,-0.41,0.82
2025-01-03 09:41:36.398621,-0.015197869291064117,-0.018493792751776816,0.004699742712497739,0.9997024141298761,-0.06666666666666667,0.023333333333333334,0.0077777777777777776,-0.18,0.0,-0.23
2025-01-03 09:41:36.414460,-0.015319859859584313,-0.018676801263078885,0.004699717964892399,0.9996971499606832,-0.025555555555555557,-0.034444444444444444,0.005555555555555556,-0.37,0.43,-1.25
2025-01-03 09:41:36.426122,-0.015381070408489314,-0.018066654130606496,0.004455627538967143,0.9997085405581209,0.012222222222222223,0.021111111111111112,-0.04666666666666667,-0.07,-0.1,-1.04
2025-01-03 09:41:36.436259,-0.015198054461441433,-0.017944690809894703,0.004211509067628349,0.9997145944736916,0.034444444444444444,0.021111111111111112,-0.06111111111111111,-0.49,-0.19,-0.8
2025-01-03 09:41:36.449295,-0.015259091876406141,-0.017944692046653624,0.003967363887865597,0.9997146633746248,-0.01,-0.0033333333333333335,-0.03888888888888889,-0.69,-0.4,1.35
2025-01-03 09:41:36.462478,-0.015014889015089796,-0.01837187639651231,0.003906312589291654,0.9997108421876251,0.05,-0.09111111111111111,-0.017777777777777778,-0.52,-0.24,0.12
2025-01-03 09:41:36.475499,-0.015076050143828328,-0.017822698955456972,0.004089454897313757,0.9997191307925676,-0.05333333333333334,0.11,0.012222222222222223,0.67,-0.47,-0.58
2025-01-03 09:41:36.485306,-0.014587786260143449,-0.018127918490638512,0.004028426331253003,0.9997211345392869,0.04555555555555556,0.011111111111111112,0.02,0.29,-0.26,-0.38
2025-01-03 09:41:36.497711,-0.014831968591710076,-0.017822777073166016,0.003906362098228168,0.9997235126074869,-0.04666666666666667,0.06888888888888889,-0.022222222222222223,0.33,0.03,1.09
2025-01-03 09:41:36.514038,-0.015015021922246624,-0.01788374562283846,0.00390634716676335,0.9997196913190141,-0.04111111111111111,-0.015555555555555555,0.0044444444444444444,-0.09,0.59,1.17
2025-01-03 09:41:36.525673,-0.014892944828162785,-0.017944777784753518,0.004150492820963399,0.9997194399199928,0.035555555555555556,-0.014444444444444444,0.057777777777777775,-0.1,0.56,0.91
2025-01-03 09:41:36.536062,-0.015625349199463737,-0.017334371768155082,0.0045777390232803914,0.9997171661641271,-0.08777777777777777,0.0811111111111111,0.07,0.09,-0.06,-2.78
2025-01-03 09:41:36.547016,-0.015564442188423932,-0.01696829383679158,0.004333629001482742,0.9997254847223356,0.014444444444444444,0.07111111111111111,-0.057777777777777775,0.25,-0.37,-1.44
2025-01-03 09:41:36.560378,-0.015563523574550821,-0.016967292367549524,0.0038451058243007914,0.9997275143182057,-0.0044444444444444444,-0.005555555555555556,-0.10222222222222223,-0.18,-0.29,0.13
2025-01-03 09:41:36.574672,-0.015563537720556927,-0.016967307789469904,0.0036009753941680734,0.9997284229910685,0.0033333333333333335,0.0011111111111111111,-0.04888888888888889,-0.27,-0.42,1.47
2025-01-03 09:41:36.584544,-0.015563527198011826,-0.0169672963178325,0.0037840732795166006,0.9997277470722891,-0.006666666666666667,0.0,0.03666666666666667,-0.04,-0.23,-1.7
2025-01-03 09:41:36.595626,-0.015747536640696995,-0.016907238951446,0.00415051353320696,0.9997244288293646,-0.034444444444444444,0.014444444444444444,0.07555555555555556,0.27,-0.24,-0.23
2025-01-03 09:41:36.607357,-0.015136382177245892,-0.016906362351198034,0.004211332138024059,0.9997336292874505,0.028888888888888888,0.011111111111111112,-0.028888888888888888,0.33,-0.01,0.16
2025-01-03 09:41:36.620648,-0.01495330952268601,-0.017028462680936315,0.003906170650824101,0.9997355509452933,0.04,-0.013333333333333334,-0.056666666666666664,0.18,0.16,-1.07
2025-01-03 09:41:36.631489,-0.014953300972258934,-0.01708948682543878,0.0037841006542043017,0.9997349792881687,0.0,-0.01888888888888889,-0.03222222222222222,-0.05,0.53,-0.1
2025-01-03 09:41:36.641621,-0.014953359432963477,-0.016845417157134366,0.0038451495684763224,0.9997388878038438,-0.0033333333333333335,0.04666666666666667,0.015555555555555555,-0.08,0.5,-0.73
2025-01-03 09:41:36.655595,-0.015014310468174794,-0.017089459069467246,0.003967195855412039,0.9997333555638338,-0.02,-0.042222222222222223,0.025555555555555557,0.27,-0.78,0.78
2025-01-03 09:41:36.667479,-0.015136376679720155,-0.017028423764685174,0.003784094169930039,0.9997332661847425,-0.023333333333333334,0.03333333333333333,-0.04111111111111111,0.25,-0.49,-2.16
2025-01-03 09:41:36.678209,-0.01507531356058273,-0.017272525253623126,0.003417884855840619,0.999731320333381,0.012222222222222223,-0.04888888888888889,-0.07777777777777778,0.16,-0.44,-1.41
2025-01-03 09:41:36.687925,-0.01495323813960302,-0.01745561676704679,0.003173748503099417,0.9997307784763163,0.02666666666666667,-0.03111111111111111,-0.04777777777777778,-0.3,0.08,0.97
2025-01-03 09:41:36.700396,-0.01525924468290828,-0.017517612895978706,0.0032959968515081884,0.9997246746454189,-0.06555555555555556,-0.016666666666666666,0.02666666666666667,0.12,0.02,0.78
2025-01-03 09:41:36.716790,-0.015259215604978036,-0.017578616376934697,0.0035401380203549044,0.999722769575741,0.0077777777777777776,-0.01888888888888889,0.05555555555555555,0.08,0.52,0.51
2025-01-03 09:41:36.726170,-0.015136281954063618,-0.01745555096315401,0.0034789035136355896,0.9997270097079115,0.006666666666666667,0.03666666666666667,0.012222222222222223,0.11,0.04,-0.68
2025-01-03 09:41:36.738567,-0.014892199272158544,-0.017516644225858614,0.003234780989444274,0.9997304265490039,0.04888888888888889,-0.02,-0.04777777777777778,-0.11,-0.34,0.0
2025-01-03 09:41:36.752714,-0.014770135613815835,-0.01763871567104453,0.0030516809119454204,0.9997306667533198,0.024444444444444446,-0.014444444444444444,-0.03222222222222222,-0.54,-0.5,0.21
2025-01-03 09:41:36.766417,-0.014770079163342527,-0.017821748411967018,0.0032347694035419583,0.9997268458493827,0.0033333333333333335,-0.0044444444444444444,0.0,0.11,0.03,0.31
2025-01-03 09:41:36.778257,-0.014954028758018508,-0.017883797657548665,0.003357026864044971,0.9997226001125924,-0.03333333333333333,-0.015555555555555555,0.03,0.31,0.45,-1.45
2025-01-03 09:41:36.788403,-0.015197320642184417,-0.017394523626596624,0.0034178713090856523,0.9997273579075533,-0.04111111111111111,0.10333333333333333,0.011111111111111112,0.79,0.47,-0.13
2025-01-03 09:41:36.802230,-0.015136294358512685,-0.01745556526828479,0.0032347725846821464,0.9997278290017652,0.0033333333333333335,-0.012222222222222223,-0.03666666666666667,-0.04,-0.28,-1.17
2025-01-03 09:41:36.815688,-0.014953251925955707,-0.017455632860503396,0.0028685830225302785,0.9997317001924673,0.043333333333333335,0.005555555555555556,-0.08,-0.74,-0.41,-0.25
2025-01-03 09:41:36.827355,-0.015075258049534216,-0.017638662252289022,0.002502370769355882,0.9997276390743743,-0.03111111111111111,-0.013333333333333334,-0.005555555555555556,-0.37,0.31,-0.23
2025-01-03 09:41:36.837704,-0.01525835522360865,-0.017455558375808297,0.002746503940249557,0.9997274342508388,-0.03111111111111111,-0.013333333333333334,-0.005555555555555556,0.6,-0.22,0.92
2025-01-03 09:41:36.849708,-0.015136289706840708,-0.017516593330093883,0.0029906378856257854,0.999727521766334,0.025555555555555557,-0.011111111111111112,0.043333333333333335,0.63,-0.11,-2.39
2025-01-03 09:41:36.862664,-0.01464814708878834,-0.017455708614139438,0.002929629417757668,0.9997360388098042,0.10222222222222223,0.013333333333333334,-0.012222222222222223,0.75,-0.67,-1.06
2025-01-03 09:41:36.876158,-0.014404056885809634,-0.017516797992488835,0.002685502131252644,0.9997392024981433,0.052222222222222225,-0.015555555555555555,-0.04555555555555556,-0.78,0.12,0.4
2025-01-03 09:41:36.886611,-0.014220958864731452,-0.01763887172492442,0.0027465371197979197,0.9997395116064428,0.03666666666666667,-0.027777777777777776,0.0044444444444444444,-0.23,0.21,2.16
2025-01-03 09:41:36.899431,-0.014220845286689666,-0.0180049328737058,0.0032347845501912117,0.9997315270213594,-0.034444444444444444,-0.10444444444444445,0.04666666666666667,-0.32,0.43,1.93
2025-01-03 09:41:36.914764,-0.014586983464108447,-0.017943820662961855,0.003295803795237892,0.9997271512221605,-0.07444444444444444,0.012222222222222223,0.021111111111111112,0.33,0.53,-2.73
2025-01-03 09:41:36.928486,-0.01458707355672902,-0.017699796365905504,0.0026854863451718698,0.9997333257708007,0.0022222222222222222,-0.057777777777777775,-0.09111111111111111,0.29,-0.38,-1.97
2025-01-03 09:41:36.939408,-0.014587176257831944,-0.01733371572060365,0.0024413684113526266,0.9997403644489006,0.0,0.06666666666666667,-0.051111111111111114,0.42,-0.65,1.8
2025-01-03 09:41:36.954880,-0.01458722011023357,-0.017150664648433612,0.0025024101444333737,0.9997433698980162,-0.006666666666666667,0.04888888888888889,0.011111111111111112,-0.24,-0.25,1.28
2025-01-03 09:41:36.967177,-0.014526173730472906,-0.017150650496902883,0.0031127515136727653,0.9997425449796059,0.03333333333333333,-0.04888888888888889,0.058888888888888886,-0.63,0.15,-2.58
2025-01-03 09:41:36.979526,-0.014343124238096935,-0.01702864537203849,0.0034179359886528865,0.9997462766809693,0.04111111111111111,0.02,0.058888888888888886,-0.31,0.78,-2.03
2025-01-03 09:41:36.989754,-0.013915899035610902,-0.017272804504727568,0.0036010440486887864,0.9997474833478359,0.09111111111111111,-0.044444444444444446,0.03666666666666667,0.0,0.25,0.57
2025-01-03 09:41:37.004266,-0.013793838507002817,-0.017333850159242478,0.0036010463358989654,0.9997481183394077,0.021111111111111112,-0.014444444444444444,0.0022222222222222222,0.16,0.26,-0.54
2025-01-03 09:41:37.017430,-0.013854855719821466,-0.017394862908145892,0.00341793797493393,0.9997468576681745,-0.0077777777777777776,0.02666666666666667,-0.013333333333333334,0.3,-0.07,0.16
2025-01-03 09:41:37.029235,-0.01434303383323052,-0.01739474315944978,0.003417914445365571,0.9997399752694295,-0.09666666666666666,-0.005555555555555556,-0.006666666666666667,0.1,0.03,-3.2
2025-01-03 09:41:37.039834,-0.01446519486241437,-0.016906577961556035,0.003478970916276874,0.9997463790985122,-0.02666666666666667,0.10777777777777778,0.01,0.1,-0.15,-2.2
2025-01-03 09:41:37.054115,-0.014098960979139463,-0.01733378752413683,0.0034179299343368398,0.9997445057935256,0.06555555555555556,-0.09777777777777778,-0.011111111111111112,-0.64,-0.35,-0.78
2025-01-03 09:41:37.068072,-0.014587243639628204,-0.016845519851620853,0.0036620695329610555,0.9997449824983681,-0.03888888888888889,0.03777777777777778,0.0033333333333333335,-0.1,0.27,0.18
2025-01-03 09:41:37.079649,-0.013915876355712276,-0.017272776353800763,0.004028279997706185,0.9997458539761714,0.14,-0.09222222222222222,0.07222222222222222,-0.01,-0.41,0.36
2025-01-03 09:41:37.090221,-0.014037947747504935,-0.01708967551870166,0.00433345343509935,0.9997460178440472,-0.02,0.042222222222222223,0.05444444444444444,0.14,0.41,-0.56
2025-01-03 09:41:37.103703,-0.014159984892485301,-0.0170896369392064,0.004455512487721669,0.9997437609435743,-0.022222222222222223,0.005555555555555556,0.025555555555555557,0.13,0.5,-2.35
2025-01-03 09:41:37.117275,-0.01361075045289751,-0.017211801021152905,0.004455537143773624,0.9997492933563283,0.10666666666666667,-0.02,0.0033333333333333335,-0.14,0.33,0.52
2025-01-03 09:41:37.129517,-0.013610764117465686,-0.01727285311768067,0.003967263083566232,0.9997502970586903,0.042222222222222223,-0.0033333333333333335,-0.043333333333333335,-0.28,0.41,0.97
2025-01-03 09:41:37.141495,-0.013610767387841538,-0.017272857267978274,0.0039062292054791855,0.9997505372773291,-0.0011111111111111111,-0.008888888888888889,-0.016666666666666666,0.0,0.51,-1.83
2025-01-03 09:41:37.155300,-0.013793749097524925,-0.017638909244180104,0.003906194434697324,0.9997416381303463,-0.04,-0.06777777777777778,0.006666666666666667,-0.25,0.21,-0.81
2025-01-03 09:41:37.168735,-0.014038008226370495,-0.01696767950839564,0.0037841587392824813,0.9997503249910813,-0.07222222222222222,0.06888888888888889,0.01,0.46,-0.64,0.17
2025-01-03 09:41:37.180351,-0.013977006679378524,-0.016967719898983536,0.003356923001597462,0.9997527048393896,0.011111111111111112,0.0,-0.08777777777777777,-0.06,-0.45,-1.55
2025-01-03 09:41:37.190506,-0.01379389533944831,-0.017211851706745235,0.0029907118213848105,0.9997522374343509,0.03777777777777778,-0.042222222222222223,-0.06888888888888889,-1.24,0.21,0.81
2025-01-03 09:41:37.203380,-0.013610776489132484,-0.017394938562344208,0.0031127784795773844,0.9997512057936776,0.043333333333333335,-0.043333333333333335,0.016666666666666666,-0.81,0.21,-0.71
2025-01-03 09:41:37.217075,-0.013549759308944564,-0.017272891371312212,0.003601062158683465,0.9997525111734772,0.01,0.024444444444444446,0.1,-0.31,0.44,0.53
2025-01-03 09:41:37.229794,-0.013549570278599557,-0.017944025504091306,0.00415031882407554,0.9997385637993728,-0.023333333333333334,-0.10333333333333333,0.09444444444444444,0.47,-0.4,-1.02
2025-01-03 09:41:37.239669,-0.01336651084887146,-0.017944083057389083,0.0039672292473819405,0.999741770340249,0.04,0.0011111111111111111,-0.03777777777777778,0.99,-0.23,1.41
2025-01-03 09:41:37.251447,-0.013549515135723805,-0.018249121736853235,0.0037840988216886304,0.9997344951493511,-0.034444444444444444,-0.06111111111111111,-0.03666666666666667,0.19,0.0,0.05
2025-01-03 09:41:37.265601,-0.013793643889460746,-0.018066011465842392,0.00390616464126322,0.9997340128733053,-0.056666666666666664,0.027777777777777776,0.023333333333333334,0.19,-0.1,-0.28
2025-01-03 09:41:37.278743,-0.014159757418863161,-0.018004863959330313,0.004455440911969874,0.9997277005214594,0.022222222222222223,0.0,0.058888888888888886,-0.09,0.23,-0.2
2025-01-03 09:41:37.289027,-0.014037862508407715,-0.017394742673461736,0.004516529676618135,0.999739947337906,-0.09,0.01888888888888889,0.04666666666666667,0.35,-0.36,0.22
2025-01-03 09:41:37.300313,-0.013976836732268958,-0.017455787359951624,0.004333429729218761,0.9997405487972295,0.02,-0.017777777777777778,-0.044444444444444446,-0.45,-0.48,-2.65
2025-01-03 09:41:37.312952,-0.01385475342511781,-0.017699905256758436,0.003967220143756201,0.9997394762265627,0.013333333333333334,-0.044444444444444446,-0.06666666666666667,-0.86,-0.37,-0.13
2025-01-03 09:41:37.327033,-0.013671688695637507,-0.017699954114887843,0.003906196770182145,0.9997422358684926,0.03888888888888889,-0.005555555555555556,-0.017777777777777778,-0.59,0.0,-0.63
2025-01-03 09:41:37.337937,-0.013732634775222038,-0.01794397610629013,0.004211341331068092,0.9997358116361643,-0.012222222222222223,-0.04888888888888889,0.06222222222222222,-0.41,0.11,0.71
2025-01-03 09:41:37.347962,-0.013732585870347843,-0.018004945918900506,0.004760629768387252,0.999732251361323,-0.0022222222222222222,-0.016666666666666666,0.11222222222222222,0.9,0.18,-1.34
2025-01-03 09:41:37.361059,-0.013610529062206188,-0.018004959970183074,0.004943734771473997,0.9997330315647415,-0.012222222222222223,-0.0011111111111111111,0.06888888888888889,0.45,0.08,-1.26
2025-01-03 09:41:37.373628,-0.013732612675883639,-0.01794394722982129,0.00457753755862788,0.9997342028043289,-0.022222222222222223,0.016666666666666666,-0.08,-0.29,0.17,1.35
2025-01-03 09:41:37.383615,-0.014037725919914094,-0.01800490933206373,0.0042723513669303765,0.9997302198617081,-0.06,-0.011111111111111112,-0.05333333333333334,-0.5,0.62,0.19
2025-01-03 09:41:37.394667,-0.014159768732944248,-0.018004878345769627,0.004272344014250419,0.9997284993345982,-0.027777777777777776,0.0,0.005555555555555556,-0.43,-0.17,0.97
2025-01-03 09:41:37.408644,-0.014404723760766834,-0.018005904700958544,0.004394661486335645,0.9997244511762712,-0.05,-0.0011111111111111111,0.01888888888888889,-0.04,-0.41,-1.25
2025-01-03 09:41:37.420842,-0.014159786534874987,-0.01800490098184535,0.003967181572271009,0.9997297562122943,-0.03888888888888889,0.0,-0.023333333333333334,0.62,-0.43,1.15
2025-01-03 09:41:37.431394,-0.013915697719747197,-0.01806599353089987,0.0037230594776516625,0.9997330203923644,0.05,-0.015555555555555555,-0.04666666666666667,0.02,-0.01,2.4
2025-01-03 09:41:37.442309,-0.014160578854717215,-0.01831109334661709,0.003845329602789589,0.999724659747471,-0.04555555555555556,-0.05444444444444444,0.03,-0.55,0.4,-0.35
2025-01-03 09:41:37.455618,-0.01397743258969593,-0.0184941575313444,0.004272577647505307,0.9997221326927059,0.03111111111111111,-0.03333333333333333,0.07666666666666666,-0.32,0.35,-2.31
2025-01-03 09:41:37.469606,-0.014099422823641685,-0.01867715750664223,0.004455661758120532,0.9997162183048794,-0.016666666666666666,-0.04,0.04555555555555556,0.41,0.45,0.34
2025-01-03 09:41:37.480932,-0.013854599213167134,-0.018249009536286224,0.0042723433696991156,0.9997283485095931,0.056666666666666664,0.0033333333333333335,-0.03333333333333333,0.39,-0.26,0.52
2025-01-03 09:41:37.491744,-0.013977399185089568,-0.018677223365228857,0.004028420725833675,0.999719743461057,-0.01888888888888889,-0.07888888888888888,-0.05555555555555555,-0.01,-0.2,0.6
2025-01-03 09:41:37.503703,-0.013977405954515,-0.018677232410836637,0.0039063492623972055,0.9997202276375597,0.0,0.0011111111111111111,-0.028888888888888888,-0.34,-0.4,-0.32
2025-01-03 09:41:37.517842,-0.014099483860053191,-0.018555164906736667,0.0039673872333483,0.9997205460771048,-0.03222222222222222,0.016666666666666666,0.011111111111111112,-0.17,-0.48,-0.83
2025-01-03 09:41:37.530360,-0.014099474615244571,-0.01849411605376236,0.004394641438517788,0.9997198905761508,0.03111111111111111,-0.02,0.04555555555555556,0.18,0.04,0.2
2025-01-03 09:41:37.542992,-0.014099442678772897,-0.01861614725985166,0.004394631484292851,0.9997176261282307,0.0,-0.014444444444444444,0.0077777777777777776,-0.1,1.43,-1.0
2025-01-03 09:41:37.555741,-0.013794282265802963,-0.018799287335696073,0.004211528656373471,0.9997192443875519,0.06,-0.04666666666666667,-0.03666666666666667,-0.03,0.15,-0.44
2025-01-03 09:41:37.570165,-0.013611216744686794,-0.018799348687728847,0.004028431861656181,0.999722507001009,0.03,0.008888888888888889,-0.04111111111111111,0.32,0.53,-1.67
2025-01-03 09:41:37.581435,-0.014221503828202416,-0.01867716811772506,0.003906335815471908,0.9997167862752248,-0.044444444444444446,-0.0022222222222222222,-0.0033333333333333335,0.15,0.1,0.2
2025-01-03 09:41:37.591951,-0.014099534916937426,-0.018372121255403315,0.003906364652311668,0.9997241662533252,0.02666666666666667,0.06444444444444444,0.01,0.29,-0.43,1.04
2025-01-03 09:41:37.605077,-0.014159774350435141,-0.018065918998831042,0.003906144648395901,0.9997288959488259,-0.014444444444444444,0.06333333333333334,0.0,0.1,-0.36,0.23
2025-01-03 09:41:37.619983,-0.014159774350435141,-0.018065918998831042,0.003906144648395901,0.9997288959488259,0.0033333333333333335,0.0044444444444444444,-0.0077777777777777776,-0.59,-0.26,-1.06
2025-01-03 09:41:37.631760,-0.01416056513832903,-0.01831107560990823,0.004089473552879505,0.9997236913822897,-0.006666666666666667,-0.06111111111111111,0.03,-0.46,-0.25,-0.82
2025-01-03 09:41:37.642398,-0.014038457410344068,-0.018494141718844576,0.004272573994452543,0.9997212779305457,0.024444444444444446,-0.03666666666666667,0.03777777777777778,-0.05,0.24,-0.5
2025-01-03 09:41:37.655074,-0.01440462780878001,-0.018372004112045693,0.004394632212848139,0.9997177918644398,-0.07666666666666666,0.02,0.024444444444444446,0.52,0.57,1.21
2025-01-03 09:41:37.670809,-0.0147097452517814,-0.0183719224928888,0.004394612689328883,0.999713350534969,-0.057777777777777775,-0.0011111111111111111,-0.0022222222222222222,0.07,-0.31,-2.11
2025-01-03 09:41:37.682797,-0.014465642137191967,-0.018555085273022607,0.0037232243475472993,0.9997162555488068,-0.021111111111111112,0.008888888888888889,-0.08333333333333333,-0.39,-0.26,-1.01
2025-01-03 09:41:37.692925,-0.014099442179767248,-0.018799256239689664,0.003540119681500002,0.999717590746354,0.07666666666666666,-0.05333333333333334,-0.034444444444444444,-0.53,-0.72,-0.15
2025-01-03 09:41:37.705135,-0.014221513762254959,-0.018677181164163163,0.0037232289248821993,0.9997174846007466,-0.023333333333333334,0.022222222222222223,0.034444444444444444,0.5,0.61,1.17
2025-01-03 09:41:37.718664,-0.015014985422770584,-0.018005775202102937,0.003967374197073529,0.9997172611364203,-0.1688888888888889,0.13777777777777778,0.06,0.77,0.77,0.19
2025-01-03 09:41:37.731386,-0.014343671699590709,-0.018250033353947325,0.003784287852657974,0.9997233990110477,0.07777777777777778,-0.05444444444444444,0.005555555555555556,-0.8,-0.04,0.36
2025-01-03 09:41:37.742141,-0.014526789248269787,-0.018127968095529943,0.003540141917645578,0.9997238701571883,0.06666666666666667,0.005555555555555556,-0.04777777777777778,-1.17,0.0,1.22
2025-01-03 09:41:37.753542,-0.014159806156636433,-0.018004925931929948,0.0036009851863859897,0.9997311415763138,0.08,0.02666666666666667,0.01,-0.13,-0.13,3.53
2025-01-03 09:41:37.765900,-0.014281810780142989,-0.018126913682489178,0.0037230361435415483,0.9997267546100093,-0.021111111111111112,-0.022222222222222223,0.024444444444444446,-0.2,0.22,3.67
2025-01-03 09:41:37.778123,-0.5,-0.5,-0.5,-0.5,-0.0011111111111111111,-0.0011111111111111111,-0.0011111111111111111,1.04,-0.53,-3.57
2025-01-03 09:41:37.788629,-0.014709037340365378,-0.017821738188326518,0.003662000997601339,0.9997262723451655,0.013333333333333334,0.08888888888888889,-0.024444444444444446,0.44,-0.38,-4.23
2025-01-03 09:41:37.800099,-0.014648865426913142,-0.018066934026526208,0.003295994721055457,0.9997240284475432,0.014444444444444444,-0.044444444444444446,-0.08,-0.59,-0.07,2.52
2025-01-03 09:41:37.815342,-0.01470903706640443,-0.017882771205213685,0.0033568341852790195,0.9997262537249152,0.0,0.022222222222222223,-0.023333333333333334,-0.49,0.23,-0.58
2025-01-03 09:41:37.825277,-0.014892947047494286,-0.01806685379532094,0.0035401267571912648,0.9997195888971677,-0.035555555555555556,-0.03888888888888889,0.04,-0.25,-0.06,-4.84
2025-01-03 09:41:37.835769,-0.015137058136633434,-0.018005774799624445,0.00347908191043591,0.999717238789996,-0.051111111111111114,0.012222222222222223,-0.012222222222222223,0.06,0.26,-3.11
2025-01-03 09:41:37.846057,-0.014893005471752915,-0.017883813947637724,0.0033570299219115177,0.99972351074525,0.043333333333333335,0.027777777777777776,-0.027777777777777776,0.37,-0.3,2.13
2025-01-03 09:41:37.858988,-0.014343018578913642,-0.017455758781145966,0.003417910810294315,0.9997389120110871,0.11333333333333333,0.08444444444444445,0.014444444444444444,0.51,-1.1,3.13
2025-01-03 09:41:37.872103,-0.014220824335440545,-0.018004906347446184,0.0036620148503280375,0.9997300541395543,0.052222222222222225,-0.058888888888888886,0.02,-0.54,-0.03,-1.13
2025-01-03 09:41:37.882931,-0.014403940316294321,-0.017760790813735793,0.0038451196607056874,0.9997311117834787,-0.035555555555555556,0.05333333333333334,0.044444444444444446,-0.23,0.85,0.0
2025-01-03 09:41:37.893321,-0.014342854871900842,-0.017943826946122756,0.004150272899103222,0.999727501283982,0.016666666666666666,-0.044444444444444446,0.06222222222222222,0.12,0.73,0.33
2025-01-03 09:41:37.905307,-0.014586969526527039,-0.017760703482089406,0.004394400861547894,0.9997261960021461,-0.05,0.03777777777777778,0.044444444444444446,0.4,0.39,0.15
2025-01-03 09:41:37.920733,-0.014587090374565338,-0.017333613666847516,0.0042113357148326706,0.9997344783907123,-0.0022222222222222222,0.08444444444444445,-0.035555555555555556,0.25,-0.22,-0.59
2025-01-03 09:41:37.932568,-0.014770177456908914,-0.01745566426725599,0.003173757139501089,0.999733498942843,0.0022222222222222222,-0.021111111111111112,-0.1111111111111111,-0.89,0.04,-0.91
2025-01-03 09:41:37.946489,-0.014770177456908914,-0.01745566426725599,0.003173757139501089,0.999733498942843,-0.006666666666666667,-0.006666666666666667,-0.01,-0.57,-0.38,0.86
2025-01-03 09:41:37.960470,-0.014892177331867111,-0.017577651932695608,0.0033568432510356194,0.9997289536720627,-0.015555555555555555,-0.013333333333333334,0.044444444444444446,0.16,-0.11,-1.69
2025-01-03 09:41:37.974538,-0.014526122567116597,-0.017272658346613432,0.0035399794491292546,0.9997390237368482,0.08555555555555555,-0.03111111111111111,-0.016666666666666666,0.55,-0.32,-0.32
2025-01-03 09:41:37.983767,-0.014343027314742397,-0.01745576941283543,0.0032348104156653067,0.9997395209169382,0.03666666666666667,-0.027777777777777776,-0.052222222222222225,-0.16,0.32,1.76
2025-01-03 09:41:37.994509,-0.014343054911517298,-0.017333734446259203,0.0032958509158380173,0.9997414444708653,0.0,0.023333333333333334,0.012222222222222223,-0.38,0.32,0.83
2025-01-03 09:41:38.007614,-0.014342953581643099,-0.017638781213169596,0.0037840983917526473,0.9997343815630381,-0.005555555555555556,-0.07111111111111111,0.09111111111111111,-0.45,0.08,0.58
2025-01-03 09:41:38.021693,-0.014342921604272032,-0.017638741887806883,0.004333393335758784,0.9997321526722378,0.0,0.008888888888888889,0.11888888888888889,0.22,0.47,-3.29
2025-01-03 09:41:38.033695,-0.015075251984631324,-0.017272454703039127,0.004455438845660269,0.9997272368755509,-0.043333333333333335,0.05555555555555555,-0.03666666666666667,0.22,-0.26,-1.05
2025-01-03 09:41:38.044258,-0.014831226855664912,-0.017150513359842964,0.004089268309998144,0.9997345510114866,0.04888888888888889,0.024444444444444446,-0.07444444444444444,-0.05,-0.25,-1.28
2025-01-03 09:41:38.057797,-0.014831241220236073,-0.017150529970725664,0.0038451366126537965,0.9997355192899872,-0.0044444444444444444,0.006666666666666667,-0.042222222222222223,-0.2,-0.64,3.01
2025-01-03 09:41:38.072001,-0.014831234148441976,-0.0171505217930543,0.003967202549994767,0.9997350425986814,0.0022222222222222222,-0.008888888888888889,0.016666666666666666,0.11,-0.23,-2.59
2025-01-03 09:41:38.084376,-0.014831172491665774,-0.017272517757783597,0.004455455110665027,0.9997308864752484,-0.0011111111111111111,-0.04,0.04777777777777778,-0.07,0.19,-2.31
2025-01-03 09:41:38.095140,-0.014587078202684452,-0.01727256540317866,0.0046385688008536334,0.9997336441839805,0.05,0.008888888888888889,0.03222222222222222,0.21,0.0,1.01
2025-01-03 09:41:38.108437,-0.014098946877129918,-0.017089632578339294,0.0046996489590433056,0.9997435058328487,0.10444444444444445,0.03222222222222222,0.01888888888888889,0.4,-0.05,0.91
2025-01-03 09:41:38.122449,-0.013854794327243848,-0.017333751493115654,0.004760678226982468,0.9997424276663183,0.052222222222222225,-0.051111111111111114,-0.0022222222222222222,0.01,0.45,-0.05
2025-01-03 09:41:38.134403,-0.014159941849678991,-0.01715061922310257,0.0048827385688548245,0.9997407219730253,-0.015555555555555555,0.042222222222222223,0.03333333333333333,0.2,0.11,-0.63
2025-01-03 09:41:38.144036,-0.014342979014090913,-0.017211574816909096,0.005065818119870408,0.9997361542587624,-0.04111111111111111,-0.013333333333333334,0.04,0.27,-0.15,-1.46
2025-01-03 09:41:38.156015,-0.01464813592996481,-0.016967424118875904,0.00518788147519587,0.9997352772200983,-0.06,0.04888888888888889,0.01888888888888889,0.13,-0.57,-0.02
2025-01-03 09:41:38.169771,-0.01440403491311147,-0.017089532947759372,0.005004791791843816,0.9997376774439232,0.051111111111111114,-0.03,-0.04111111111111111,-0.43,-0.39,0.4
2025-01-03 09:41:38.183178,-0.014403995716643173,-0.017333621964096022,0.0046996087719556115,0.9997349569432846,0.008888888888888889,-0.021111111111111112,-0.05333333333333334,-0.52,0.03,-1.34
2025-01-03 09:41:38.194452,-0.014281835811182116,-0.017699711048046213,0.005065779368923571,0.9997285067827482,-0.006666666666666667,-0.022222222222222223,0.008888888888888889,-0.23,0.15,-0.99
2025-01-03 09:41:38.206003,-0.01434282441788565,-0.017699655664624846,0.005492996585573228,0.9997253785743274,-0.008888888888888889,0.0,0.09,0.89,-0.08,0.48
2025-01-03 09:41:38.219303,-0.014343684952083222,-0.017700717600443124,0.005676437023590381,0.9997243226815791,0.0011111111111111111,0.0022222222222222222,0.03777777777777778,0.81,-0.11,-1.29
2025-01-03 09:41:38.233904,-0.013793616425285407,-0.017760806990079883,0.005493033089715427,0.9997320223282079,0.10555555555555556,-0.01888888888888889,-0.044444444444444446,-0.09,0.0,-0.12
2025-01-03 09:41:38.243542,-0.013976711072239321,-0.017821832458925248,0.004882693824363082,0.999731560538341,-0.051111111111111114,0.015555555555555555,-0.027777777777777776,-0.48,0.11,0.23
2025-01-03 09:41:38.254574,-0.013976689595569044,-0.01782180507382603,0.005187854216695933,0.9997300243468163,-0.051111111111111114,0.015555555555555555,-0.027777777777777776,-0.2,-0.16,-0.53
2025-01-03 09:41:38.271326,-0.014099529585354134,-0.01794485583590526,0.005615397064296885,0.9997237882186812,-0.024444444444444446,-0.016666666666666666,0.08777777777777777,0.0,0.15,-1.0
2025-01-03 09:41:38.284099,-0.014526793713143117,-0.017578641131870663,0.005615399250458684,0.9997241774267694,-0.1322222222222222,0.06888888888888889,0.04777777777777778,-0.12,-0.47,-0.21
2025-01-03 09:41:38.295071,-0.014220779440218533,-0.01782174934138975,0.005126804605057325,0.9997268979861784,0.043333333333333335,0.0,-0.044444444444444446,-0.49,-0.02,0.07
2025-01-03 09:41:38.306942,-0.014464943787003479,-0.017638686727611836,0.004638547374735293,0.9997290262916328,-0.044444444444444446,0.04,-0.09333333333333334,-0.97,0.19,-0.54
2025-01-03 09:41:38.320558,-0.014038485757082497,-0.018311068378803256,0.004577767094700814,0.9997232965880618,0.0811111111111111,-0.14555555555555555,-0.016666666666666666,-0.65,0.23,-0.48
2025-01-03 09:41:38.335118,-0.013794330598555594,-0.01831105831666672,0.005371243772888904,0.9997227472289473,0.05333333333333334,0.0,0.07,0.7,-0.14,-0.08
2025-01-03 09:41:38.344043,-0.013428071987618254,-0.018677227400959936,0.005554338867605733,0.999719959478179,-0.0011111111111111111,0.0,0.09222222222222222,0.89,0.07,0.29
2025-01-03 09:41:38.356015,-0.5,-0.5,-0.5,-0.5,-0.0011111111111111111,-0.0011111111111111111,-0.0011111111111111111,0.09,0.14,0.36
2025-01-03 09:41:38.368808,-0.013550129922236672,-0.01873824273030026,0.005249149429334927,0.9997188198032182,-0.04888888888888889,-0.025555555555555557,-0.02666666666666667,-0.61,0.18,-0.62
2025-01-03 09:41:38.382512,-0.013550074419168091,-0.018921275089829315,0.005371200670661226,0.9997147248268206,-0.005555555555555556,-0.042222222222222223,0.021111111111111112,0.13,0.23,0.37
2025-01-03 09:41:38.392859,-0.013855263837338693,-0.018616103393781062,0.005554312815849432,0.999715270448328,-0.05444444444444444,0.06222222222222222,0.04777777777777778,0.13,0.23,0.37
2025-01-03 09:41:38.403245,-0.01428249852987499,-0.018310895551121784,0.005737413939351492,0.9997138607727456,-0.09333333333333334,0.06888888888888889,0.035555555555555556,-0.03,-0.46,-0.89
2025-01-03 09:41:38.415283,-0.01391639631053736,-0.018250010951099436,0.005371240681260034,0.9997221717995238,-0.0022222222222222222,-0.0022222222222222222,-0.011111111111111112,0.11,-0.69,-1.15
2025-01-03 09:41:38.428232,-0.014099548574222708,-0.018066954017185808,0.00494399755200017,0.9997251346198863,-0.03777777777777778,0.03,-0.08222222222222222,-0.61,-0.55,-0.66
2025-01-03 09:41:38.439623,-0.013794295524497934,-0.01861619528748615,0.004760863057127605,0.9997202052909365,0.06,-0.11555555555555555,-0.044444444444444446,-0.78,0.25,-0.36
2025-01-03 09:41:38.449545,-0.013733293379356505,-0.018494168417533426,0.004882948757104535,0.9997227211576898,0.015555555555555555,0.023333333333333334,0.034444444444444444,0.02,0.42,-1.03
2025-01-03 09:41:38.462585,-0.013794288612499081,-0.018494112608793016,0.005310190749059381,0.9997197043545241,-0.021111111111111112,-0.0044444444444444444,0.08555555555555555,0.69,0.38,0.82
2025-01-03 09:41:38.475812,-0.013671483224712826,-0.01806588854694195,0.005676106874545951,0.9997272108071255,0.027777777777777776,0.03,0.07555555555555556,0.05,0.4,0.62
2025-01-03 09:41:38.486008,-0.013855380209311652,-0.018250038249269532,0.005249174881060802,0.9997236671731963,-0.03333333333333333,-0.04,-0.09,-0.07,0.56,0.06
2025-01-03 09:41:38.496593,-0.014037659901828354,-0.018126891264534876,0.004821631009758434,0.9997255182258628,-0.03888888888888889,0.03111111111111111,-0.09,-0.4,0.02,-0.46
2025-01-03 09:41:38.509055,-0.014220766700117939,-0.018004833375685803,0.004638533344244478,0.9997260023516388,-0.043333333333333335,0.025555555555555557,-0.03888888888888889,-0.37,-0.6,-1.57
2025-01-03 09:41:38.522295,-0.014465684091538894,-0.018188919237462405,0.0046387847719702785,0.9997191550013315,-0.044444444444444446,-0.03777777777777778,0.011111111111111112,0.24,-0.86,-0.56
2025-01-03 09:41:38.534877,-0.014220859510283247,-0.01763874849129553,0.004638563617088098,0.9997325269460926,0.024444444444444446,0.05333333333333334,0.021111111111111112,0.12,-0.57,-0.77
2025-01-03 09:41:38.545117,-0.014098743702594112,-0.018004889144005467,0.004333380099065722,0.9997290989112187,0.022222222222222223,0.06,-0.023333333333333334,-0.89,0.12,-2.79
2025-01-03 09:41:38.556766,-0.013793580945616068,-0.018249029658138072,0.004211314536493402,0.9997294508371292,0.06444444444444444,-0.051111111111111114,-0.027777777777777776,-0.34,0.55,-0.03
2025-01-03 09:41:38.569714,-0.013976662287800356,-0.018126937552300024,0.004455442563359939,0.9997280710662437,-0.03111111111111111,0.013333333333333334,0.051111111111111114,-0.08,0.86,0.43
2025-01-03 09:41:38.583771,-0.014221582294539273,-0.01812793966299641,0.004943983544453567,0.999722302155617,-0.057777777777777775,-0.0022222222222222222,0.10111111111111111,0.69,-0.2,-2.9
2025-01-03 09:41:38.596346,-0.5,-0.5,-0.5,-0.5,-0.0011111111111111111,-0.0011111111111111111,-0.0011111111111111111,-0.09,-0.65,0.66
2025-01-03 09:41:38.604791,-0.014098708016000161,-0.018004843570216658,0.004882669442770619,0.9997265684072842,0.04888888888888889,0.0011111111111111111,-0.06888888888888889,-0.33,-0.14,1.96
2025-01-03 09:41:38.617372,-0.013793592712195834,-0.018188011629355568,0.004272351725016409,0.9997303036538396,0.012222222222222223,0.035555555555555556,-0.028888888888888888,0.19,-0.37,1.16
2025-01-03 09:41:38.631387,-0.014221563591776606,-0.01831102608383254,0.00451671976734536,0.9997209874236439,-0.08666666666666667,-0.023333333333333334,0.058888888888888886,-0.07,0.03,-1.67
2025-01-03 09:41:38.641486,-0.014221539114051395,-0.018310994567448148,0.00488293188465284,0.9997192667341108,0.0044444444444444444,0.0,0.07666666666666666,0.47,0.26,-1.65
2025-01-03 09:41:38.652258,-0.014343610701192562,-0.018188919101937803,0.005005004585096979,0.9997191475524808,-0.023333333333333334,0.023333333333333334,0.02666666666666667,0.2,0.23,-0.24
2025-01-03 09:41:38.664975,-0.014404707875965433,-0.018005884844956792,0.004638804231243106,0.9997233487306688,-0.014444444444444444,0.02,-0.023333333333333334,-0.12,-0.13,0.9
2025-01-03 09:41:38.679014,-0.014526775907793995,-0.018005877700837097,0.0043336180229133344,0.9997229520746128,-0.027777777777777776,-0.0033333333333333335,-0.06333333333333334,-0.57,-0.44,-0.95
2025-01-03 09:41:38.689636,-0.01464879371659309,-0.018188918864769754,0.0040284182720631,0.9997191345169927,-0.015555555555555555,-0.04111111111111111,-0.057777777777777775,-0.08,-0.41,-0.45
2025-01-03 09:41:38.699754,-0.014648797291169342,-0.01818892330320193,0.003967382599691697,0.9997193784669277,0.0077777777777777776,0.0044444444444444444,-0.023333333333333334,0.09,-0.4,1.05
2025-01-03 09:41:38.713840,-0.014403879282751731,-0.017943815716648343,0.0040892369150185,0.9997268756418363,0.05,0.057777777777777775,0.034444444444444444,0.72,-0.27,0.62
2025-01-03 09:41:38.727078,0.8931519480879166,-0.00807114626968241,0.0020040601281864487,0.4496781493108771,-0.006666666666666667,-0.044444444444444446,0.01888888888888889,-0.24,0.31,-2.05
2025-01-03 09:41:38.739006,-0.014098751606725529,-0.017943865681287037,0.004455449641952223,0.999729659385992,0.04,0.0044444444444444444,0.0,-0.51,0.32,0.63
2025-01-03 09:41:38.748612,-0.014281884836223491,-0.017638738109694824,0.004577527191097272,0.9997319385356443,-0.04555555555555556,0.06333333333333334,0.025555555555555557,-0.1,0.05,2.91
2025-01-03 09:41:38.763335,-0.014220820627264508,-0.017760767392849666,0.004760618064062797,0.9997297934531874,0.02,-0.03111111111111111,0.03666666666666667,-0.1,0.31,-0.89
2025-01-03 09:41:38.776177,-0.014953224214032963,-0.017211466238193043,0.00451648404832016,0.9997298474524895,-0.08555555555555555,0.012222222222222223,0.0044444444444444444,0.31,-0.57,-3.8
2025-01-03 09:41:38.787461,-0.014404061097925653,-0.017211632328877263,0.0041503226892328155,0.9997394948475518,0.12,-0.0033333333333333335,-0.07444444444444444,-0.23,-0.61,1.77
2025-01-03 09:41:38.800566,-0.014465097679942038,-0.017150601046682333,0.004150323384962272,0.9997396624365004,-0.016666666666666666,0.016666666666666666,0.008888888888888889,-0.37,-0.13,1.61
2025-01-03 09:41:38.815382,-0.014526149298617655,-0.017028553169387922,0.004150328371033615,0.9997408634930974,-0.016666666666666666,0.016666666666666666,0.008888888888888889,-0.3,0.58,-1.49
2025-01-03 09:41:38.830318,-0.014648308007861446,-0.01654038112554355,0.0042113885522601655,0.9997470215365437,0.051111111111111114,0.057777777777777775,0.012222222222222223,0.08,0.1,-0.08
2025-01-03 09:41:38.838270,-0.014404274632903837,-0.01629636155502256,0.004272454340268087,0.9997543156227324,0.051111111111111114,0.057777777777777775,0.012222222222222223,0.08,-0.26,0.57
2025-01-03 09:41:38.849124,-0.014404274874373568,-0.01635739689123778,0.004028314159782439,0.9997543323823689,0.0077777777777777776,-0.021111111111111112,-0.04666666666666667,-0.18,-0.74,-0.68
2025-01-03 09:41:38.863094,-0.014160105082105422,-0.016723572381452095,0.0039062358847187376,0.9997522467452019,0.05,-0.06666666666666667,-0.03666666666666667,-0.65,-0.63,1.14
2025-01-03 09:41:38.876306,-0.014465231316450193,-0.01654041218041351,0.004394500653098793,0.9997488985799753,-0.02666666666666667,0.06888888888888889,0.03111111111111111,0.18,0.33,2.27
2025-01-03 09:41:38.887560,-0.014465277416516148,-0.016296325190758697,0.004577619435606376,0.9997520847364325,-0.0044444444444444444,0.04888888888888889,0.042222222222222223,0.74,-0.08,-0.78
2025-01-03 09:41:38.898394,-0.014465317966617071,-0.016174300679972674,0.004394526977200123,0.999754887313028,0.0033333333333333335,0.03111111111111111,-0.043333333333333335,0.47,0.16,-1.95
2025-01-03 09:41:38.910542,-0.01434329861425024,-0.016174358011814098,0.003967295361388364,0.9997584310698677,0.02,-0.005555555555555556,-0.08666666666666667,-0.09,-0.18,-0.79
2025-01-03 09:41:38.923959,-0.01428234515890306,-0.015930308061853412,0.0037231754474063533,0.9997641611232142,0.014444444444444444,0.04777777777777778,-0.043333333333333335,-0.49,-0.12,0.0
2025-01-03 09:41:38.937514,-0.014404342540036634,-0.01605229698317642,0.004089368432976502,0.9997590288381359,-0.025555555555555557,-0.06444444444444444,0.011111111111111112,-0.46,0.17,0.33
2025-01-03 09:41:38.947398,-0.01428233390568546,-0.015808224280224506,0.004394564278672449,0.9997633733979823,-0.0044444444444444444,0.034444444444444444,0.06222222222222222,0.52,0.15,-1.18
2025-01-03 09:41:38.958817,-0.013916197902233413,-0.015747276573579914,0.004516660722654704,0.99976895455519,0.07444444444444444,0.015555555555555555,0.02,0.32,-0.08,-0.26
2025-01-03 09:41:38.971391,-0.013550035145921789,-0.015869410531259752,0.004333569798920933,0.9997728634693644,0.08,-0.03222222222222222,-0.03666666666666667,-0.09,-0.3,0.74
2025-01-03 09:41:38.985148,-0.01342794287242146,-0.016113531446905752,0.004150455069657542,0.9997713829557432,0.015555555555555555,-0.051111111111111114,-0.03888888888888889,-0.62,0.33,1.02
2025-01-03 09:41:38.995625,-0.013489000534513677,-0.01593044859505914,0.004272534105954558,0.9997729807933666,-0.012222222222222223,0.04555555555555556,0.025555555555555557,0.26,0.19,1.71
2025-01-03 09:41:39.006459,-0.013794125579702571,-0.01574727610426223,0.00488287631139914,0.999768924758974,-0.0022222222222222222,0.0044444444444444444,0.07555555555555556,0.41,0.24,-1.58
2025-01-03 09:41:39.019021,-0.013916252389793549,-0.015442157257095473,0.004699786991289927,0.9997728690562208,-0.03,0.06666666666666667,-0.04111111111111111,0.37,-0.03,-3.01
2025-01-03 09:41:39.032083,-0.013733195479314102,-0.015503251785536808,0.0042115132803229914,0.9997766308940667,0.035555555555555556,-0.016666666666666666,-0.09666666666666666,-0.05,0.0,-2.92
2025-01-03 09:41:39.042555,-0.01409937938426882,-0.015381141146475076,0.004028394109791091,0.99977417452088,-0.06666666666666667,0.024444444444444446,-0.034444444444444444,-0.52,0.19,2.64
2025-01-03 09:41:39.053147,-0.014160362404209018,-0.015503155390815045,0.0042725231392009965,0.9997704145730332,-0.015555555555555555,-0.016666666666666666,0.05,-0.46,0.02,2.46
2025-01-03 09:41:39.067034,-0.013977130472880501,-0.016174408625822416,0.004455591810132212,0.9997615595885704,-0.01,-0.06111111111111111,0.051111111111111114,0.24,-0.54,-4.59
2025-01-03 09:41:39.080324,-0.0140992810299778,-0.01574724894257261,0.004333545251638198,0.9997672003075168,-0.03,0.08555555555555555,-0.03222222222222222,0.68,-0.1,-1.76
2025-01-03 09:41:39.093250,-0.013489010082434971,-0.015869423626394083,0.004333573374899923,0.9997736884628272,0.12444444444444444,-0.025555555555555557,0.0,0.61,-0.28,2.94
2025-01-03 09:41:39.103464,-0.013122746268597132,-0.016357655813879216,0.004455630128407398,0.9997701575796326,0.07777777777777778,-0.09888888888888889,0.025555555555555557,0.54,-0.64,2.61
2025-01-03 09:41:39.117221,-0.013305829918326382,-0.01623555393704045,0.004760801530410357,0.999768321386175,-0.03666666666666667,0.014444444444444444,0.06555555555555556,0.35,1.49,-2.37
2025-01-03 09:41:39.129709,-0.014099089133419045,-0.01611324472390748,0.005859361717784538,0.9997535930969869,-0.013333333333333334,-0.04,0.11333333333333333,-0.31,0.87,-3.18
2025-01-03 09:41:39.139621,-0.014282153458786643,-0.015991129086333763,0.006225554071778793,0.9997507421150651,-0.03,0.024444444444444446,0.07111111111111111,-0.15,-0.33,0.98
2025-01-03 09:41:39.150033,-0.014404292152905831,-0.015624994877728358,0.00610351362411264,0.9997555316296505,-0.01888888888888889,0.0811111111111111,-0.015555555555555555,0.11,-1.06,2.37
2025-01-03 09:41:39.163973,-0.014404286947875595,-0.015808094574151606,0.0056762656192899585,0.9997551703652637,-0.011111111111111112,-0.03666666666666667,-0.09555555555555556,0.05,-0.48,-2.45
2025-01-03 09:41:39.177258,-0.014160173842388801,-0.016052266036845925,0.005249029958816538,0.9997571014583128,0.057777777777777775,-0.05,-0.08888888888888889,-0.43,0.13,0.13
2025-01-03 09:41:39.190155,-0.014343209087718163,-0.015869082394922223,0.006164528161104401,0.9997521908801,0.023333333333333334,0.02,0.15444444444444444,0.52,0.28,4.55
2025-01-03 09:41:39.199123,-0.013915987838201097,-0.015869108938299497,0.006835923850344398,0.9997538631128683,0.0811111111111111,0.0022222222222222222,0.14444444444444443,0.38,-0.49,-0.16
2025-01-03 09:41:39.211640,-0.013793929485500438,-0.015869122416947407,0.006957999828969248,0.9997547122676866,0.027777777777777776,0.008888888888888889,0.023333333333333334,0.72,-0.19,-0.73
2025-01-03 09:41:39.226115,-0.013610852367736704,-0.016052260864191717,0.006591802940428538,0.9997567792983282,0.03888888888888889,-0.042222222222222223,-0.07444444444444444,-0.16,0.42,-0.72
2025-01-03 09:41:39.238529,-0.013671870670807277,-0.0160522410108139,0.006652829924633898,0.9997555428027821,0.012222222222222223,0.0033333333333333335,-0.03666666666666667,-0.46,0.43,3.14
2025-01-03 09:41:39.248617,-0.014282014144519583,-0.01629614434438773,0.006957904326817232,0.9997409901163707,-0.11666666666666667,-0.042222222222222223,0.057777777777777775,-0.25,0.06,-2.0
2025-01-03 09:41:39.259063,-0.014465154124749208,-0.016052048670080345,0.006774819020452161,0.9997435635586162,-0.04777777777777778,0.04888888888888889,-0.03222222222222222,0.91,-0.87,-2.98
2025-01-03 09:41:39.271418,-0.014221041321763876,-0.016357249245633986,0.006286554747389181,0.9997453083712116,0.04888888888888889,-0.06333333333333334,-0.10777777777777778,-0.07,-0.87,-4.32
2025-01-03 09:41:39.286136,-0.014038005480879764,-0.016357328125546855,0.005920376224544944,0.9997501294643937,0.042222222222222223,0.0,-0.07222222222222222,-0.07,-0.39,-1.0
2025-01-03 09:41:39.297030,-0.01403801591375311,-0.01617423572671554,0.0062865897352894365,0.9997508724664171,-0.005555555555555556,0.03666666666666667,0.07,-0.07,0.22,2.24
2025-01-03 09:41:39.307111,-0.014037869411147996,-0.016540272219222205,0.00695790049074292,0.9997404389330616,-0.008888888888888889,-0.07444444444444444,0.14444444444444443,-0.32,-0.25,-2.4
2025-01-03 09:41:39.319587,-0.013793763382370787,-0.01647927483734563,0.007263087798681963,0.9997426734656348,0.0044444444444444444,0.016666666666666666,-0.03111111111111111,0.24,0.06,-2.02
2025-01-03 09:41:39.332589,-0.013549719937486097,-0.016418354338665585,0.00689692951772941,0.9997496061982986,0.052222222222222225,0.023333333333333334,-0.07555555555555556,0.14,0.34,1.03
2025-01-03 09:41:39.342948,-0.013305587307950409,-0.016662501537020466,0.006713828458140114,0.9997500922212279,0.04777777777777778,-0.052222222222222225,-0.04,0.09,-0.14,1.31
2025-01-03 09:41:39.352885,-0.013488658631789599,-0.016662460662798917,0.0067138119886735554,0.9997476397679349,-0.042222222222222223,0.005555555555555556,0.0011111111111111111,-0.03,0.42,0.32
2025-01-03 09:41:39.366623,-0.013610672040874327,-0.016784461036952646,0.006774818818551795,0.9997435337646703,-0.025555555555555557,-0.028888888888888888,0.022222222222222223,-0.08,0.45,-2.19
2025-01-03 09:41:39.379338,-0.014037826661386164,-0.0167233239357383,0.006957879301730533,0.9997373944065451,-0.02666666666666667,-0.023333333333333334,0.024444444444444446,0.05,0.16,-1.44
2025-01-03 09:41:39.390434,-0.014037855213477357,-0.016601289643764526,0.006957893453636603,0.9997394278119961,-0.0022222222222222222,0.03,-0.006666666666666667,0.12,-0.31,0.66
2025-01-03 09:41:39.400889,-0.013854706020394037,-0.01702847127616712,0.0067747681421310045,0.9997360555685212,0.04111111111111111,-0.09111111111111111,-0.04666666666666667,-0.51,-0.43,-0.15
2025-01-03 09:41:39.414684,-0.01403773041702154,-0.017272511773987375,0.0065916299349492455,0.9997305401339689,-0.03222222222222222,-0.043333333333333335,-0.03666666666666667,-0.67,-0.22,0.14
2025-01-03 09:41:39.428024,-0.013610512229553073,-0.017516668205747675,0.006652671896956434,0.9997317951573064,0.08,-0.06,0.013333333333333334,-0.31,0.37,-0.84
2025-01-03 09:41:39.440116,-0.01330600909023386,-0.018127911466969984,0.007263371934577198,0.9997207471969742,0.044444444444444446,-0.09666666666666666,0.04888888888888889,0.67,0.03,-0.69
2025-01-03 09:41:39.450473,-0.013000876833099854,-0.018005909228941113,0.007568585574198977,0.9997247025790729,0.06,0.017777777777777778,0.05444444444444444,1.24,-0.04,0.11
2025-01-03 09:41:39.462536,-0.012878037393237984,-0.018004839009503344,0.007568135719248863,0.999726315171745,0.02666666666666667,-0.005555555555555556,0.0,1.17,-0.17,-0.26
2025-01-03 09:41:39.476471,-0.013000860074644608,-0.01812795982239178,0.007446502014585175,0.9997234139089392,-0.02,-0.01888888888888889,-0.017777777777777778,-0.14,0.13,0.34
2025-01-03 09:41:39.489618,-0.013489110763986513,-0.017822716484543265,0.0077516609367705306,0.9997201140422403,-0.07333333333333333,-0.005555555555555556,0.011111111111111112,-0.52,-0.07,0.65
2025-01-03 09:41:39.499737,-0.013611090837124206,-0.01800570312534368,0.00799575291328821,0.9997132592881496,-0.03,0.05555555555555555,0.05333333333333334,-0.9,-0.33,0.32
